Tick,Flight_State,Stabilization_Flag,Altitude, Temperature,Pressure,Base_Pressure,Velocity,Max_Rocket_Velocity,Max_Payload_Velocity,Yaw,Pitch,Roll,Abs_Accel,AccelX,AccelY,AccelZ,GyroX,GyroY,GyroZ,Thrust, Servo1,Servo2,Servo3,Servo4,Flight_time
164,0,0,0,0,0,12738.31934,0,0,0,0,0,0,0,0,0,0,0,0,0,0,0,0,0,0,164
164,0,0,0,0,0,16377.90918,0,0,0,0,0,0,0,0,0,0,0,0,0,0,0,0,0,0,164
164,0,0,0,0,0,20017.31836,0,0,0,0,0,0,0,0,0,0,0,0,0,0,0,0,0,0,164
164,0,0,0,0,0,23656.9375,0,0,0,0,0,0,0,0,0,0,0,0,0,0,0,0,0,0,164
164,0,0,0,0,0,27296.63672,0,0,0,0,0,0,0,0,0,0,0,0,0,0,0,0,0,0,164
164,0,0,0,0,0,30936.41016,0,0,0,0,0,0,0,0,0,0,0,0,0,0,0,0,0,0,164
164,0,0,0,0,0,34576.13281,0,0,0,0,0,0,0,0,0,0,0,0,0,0,0,0,0,0,164
164,0,0,0,0,0,38216.47266,0,0,0,0,0,0,0,0,0,0,0,0,0,0,0,0,0,0,164
164,0,0,0,0,0,41856.44531,0,0,0,0,0,0,0,0,0,0,0,0,0,0,0,0,0,0,164
164,0,0,0,0,0,44586.38672,0,0,0,0,0,0,0,0,0,0,0,0,0,0,0,0,0,0,164
164,0,0,0,0,0,48226.46875,0,0,0,0,0,0,0,0,0,0,0,0,0,0,0,0,0,0,164
164,0,0,0,0,0,51866.59766,0,0,0,0,0,0,0,0,0,0,0,0,0,0,0,0,0,0,164
164,0,0,0,0,0,55506.65625,0,0,0,0,0,0,0,0,0,0,0,0,0,0,0,0,0,0,164
164,0,0,0,0,0,59146.66016,0,0,0,0,0,0,0,0,0,0,0,0,0,0,0,0,0,0,164
164,0,0,0,0,0,62786.52734,0,0,0,0,0,0,0,0,0,0,0,0,0,0,0,0,0,0,164
164,0,0,0,0,0,66426.51563,0,0,0,0,0,0,0,0,0,0,0,0,0,0,0,0,0,0,164
164,0,0,0,0,0,70066.61719,0,0,0,0,0,0,0,0,0,0,0,0,0,0,0,0,0,0,164
164,0,0,0,0,0,72796.77344,0,0,0,0,0,0,0,0,0,0,0,0,0,0,0,0,0,0,164
164,0,0,0,0,0,77347.34375,0,0,0,0,0,0,0,0,0,0,0,0,0,0,0,0,0,0,164
164,0,0,0,0,0,80987.39063,0,0,0,0,0,0,0,0,0,0,0,0,0,0,0,0,0,0,164
164,0,0,0,0,0,84627.30469,0,0,0,0,0,0,0,0,0,0,0,0,0,0,0,0,0,0,164
164,0,0,0,0,0,88267.36719,0,0,0,0,0,0,0,0,0,0,0,0,0,0,0,0,0,0,164
164,0,0,0,0,0,91907.59375,0,0,0,0,0,0,0,0,0,0,0,0,0,0,0,0,0,0,164
164,0,0,0,0,0,95547.16406,0,0,0,0,0,0,0,0,0,0,0,0,0,0,0,0,0,0,164
164,0,0,0,0,0,99187.375,0,0,0,0,0,0,0,0,0,0,0,0,0,0,0,0,0,0,164
164,0,0,0,0,0,102827.625,0,0,0,0,0,0,0,0,0,0,0,0,0,0,0,0,0,0,164
164,0,0,0,0,0,106468.0313,0,0,0,0,0,0,0,0,0,0,0,0,0,0,0,0,0,0,164
164,0,0,0,0,0,110108.1875,0,0,0,0,0,0,0,0,0,0,0,0,0,0,0,0,0,0,164
164,0,0,0,0,0,113748.1172,0,0,0,0,0,0,0,0,0,0,0,0,0,0,0,0,0,0,164
164,0,0,0,0,0,117388.3047,0,0,0,0,0,0,0,0,0,0,0,0,0,0,0,0,0,0,164
164,0,0,0,0,0,121028.6953,0,0,0,0,0,0,0,0,0,0,0,0,0,0,0,0,0,0,164
164,0,0,0,0,0,124668.9375,0,0,0,0,0,0,0,0,0,0,0,0,0,0,0,0,0,0,164
164,0,0,0,0,0,128309.0156,0,0,0,0,0,0,0,0,0,0,0,0,0,0,0,0,0,0,164
164,0,0,0,0,0,131949.0469,0,0,0,0,0,0,0,0,0,0,0,0,0,0,0,0,0,0,164
164,0,0,0,0,0,134679.1875,0,0,0,0,0,0,0,0,0,0,0,0,0,0,0,0,0,0,164
164,0,0,0,0,0,138319.2344,0,0,0,0,0,0,0,0,0,0,0,0,0,0,0,0,0,0,164
164,0,0,0,0,0,141959.2813,0,0,0,0,0,0,0,0,0,0,0,0,0,0,0,0,0,0,164
164,0,0,0,0,0,145599.2656,0,0,0,0,0,0,0,0,0,0,0,0,0,0,0,0,0,0,164
164,0,0,0,0,0,149239.3438,0,0,0,0,0,0,0,0,0,0,0,0,0,0,0,0,0,0,164
164,0,0,0,0,0,152879.6875,0,0,0,0,0,0,0,0,0,0,0,0,0,0,0,0,0,0,164
164,0,0,0,0,0,156520.0156,0,0,0,0,0,0,0,0,0,0,0,0,0,0,0,0,0,0,164
164,0,0,0,0,0,160160.0469,0,0,0,0,0,0,0,0,0,0,0,0,0,0,0,0,0,0,164
164,0,0,0,0,0,163800.2188,0,0,0,0,0,0,0,0,0,0,0,0,0,0,0,0,0,0,164
164,0,0,0,0,0,167440.0938,0,0,0,0,0,0,0,0,0,0,0,0,0,0,0,0,0,0,164
164,0,0,0,0,0,171080,0,0,0,0,0,0,0,0,0,0,0,0,0,0,0,0,0,0,164
168,0,0,0,0,0,9094.990234,0,0,0,0,0,0,0,0,0,0,0,0,0,0,0,0,0,0,168
168,0,0,0,0,0,12733.74023,0,0,0,0,0,0,0,0,0,0,0,0,0,0,0,0,0,0,168
168,0,0,0,0,0,16372.4707,0,0,0,0,0,0,0,0,0,0,0,0,0,0,0,0,0,0,168
168,0,0,0,0,0,20010.74023,0,0,0,0,0,0,0,0,0,0,0,0,0,0,0,0,0,0,168
168,0,0,0,0,0,23649.31055,0,0,0,0,0,0,0,0,0,0,0,0,0,0,0,0,0,0,168
168,0,0,0,0,0,26377.88281,0,0,0,0,0,0,0,0,0,0,0,0,0,0,0,0,0,0,168
168,0,0,0,0,0,30016.44141,0,0,0,0,0,0,0,0,0,0,0,0,0,0,0,0,0,0,168
168,0,0,0,0,0,33655.04297,0,0,0,0,0,0,0,0,0,0,0,0,0,0,0,0,0,0,168
168,0,0,0,0,0,36383.84375,0,0,0,0,0,0,0,0,0,0,0,0,0,0,0,0,0,0,168
168,0,0,0,0,0,40022.64453,0,0,0,0,0,0,0,0,0,0,0,0,0,0,0,0,0,0,168
168,0,0,0,0,0,43661.29688,0,0,0,0,0,0,0,0,0,0,0,0,0,0,0,0,0,0,168
168,0,0,0,0,0,47299.58203,0,0,0,0,0,0,0,0,0,0,0,0,0,0,0,0,0,0,168
168,0,0,0,0,0,50938.41016,0,0,0,0,0,0,0,0,0,0,0,0,0,0,0,0,0,0,168
168,0,0,0,0,0,54577.14063,0,0,0,0,0,0,0,0,0,0,0,0,0,0,0,0,0,0,168
168,0,0,0,0,0,57306.26172,0,0,0,0,0,0,0,0,0,0,0,0,0,0,0,0,0,0,168
168,0,0,0,0,0,60945.10156,0,0,0,0,0,0,0,0,0,0,0,0,0,0,0,0,0,0,168
168,0,0,0,0,0,64583.76953,0,0,0,0,0,0,0,0,0,0,0,0,0,0,0,0,0,0,168
168,0,0,0,0,0,68222.5625,0,0,0,0,0,0,0,0,0,0,0,0,0,0,0,0,0,0,168
168,0,0,0,0,0,71861.29688,0,0,0,0,0,0,0,0,0,0,0,0,0,0,0,0,0,0,168
168,0,0,0,0,0,75500.28125,0,0,0,0,0,0,0,0,0,0,0,0,0,0,0,0,0,0,168
168,0,0,0,0,0,80048.71094,0,0,0,0,0,0,0,0,0,0,0,0,0,0,0,0,0,0,168
168,0,0,0,0,0,82777.71875,0,0,0,0,0,0,0,0,0,0,0,0,0,0,0,0,0,0,168
168,0,0,0,0,0,88235.83594,0,0,0,0,0,0,0,0,0,0,0,0,0,0,0,0,0,0,168
168,0,0,0,0,0,92783.83594,0,0,0,0,0,0,0,0,0,0,0,0,0,0,0,0,0,0,168
168,0,0,0,0,0,96422.07813,0,0,0,0,0,0,0,0,0,0,0,0,0,0,0,0,0,0,168
168,0,0,0,0,0,100970.375,0,0,0,0,0,0,0,0,0,0,0,0,0,0,0,0,0,0,168
168,0,0,0,0,0,104609.2969,0,0,0,0,0,0,0,0,0,0,0,0,0,0,0,0,0,0,168
168,0,0,0,0,0,109157.5625,0,0,0,0,0,0,0,0,0,0,0,0,0,0,0,0,0,0,168
168,0,0,0,0,0,112796.1094,0,0,0,0,0,0,0,0,0,0,0,0,0,0,0,0,0,0,168
168,0,0,0,0,0,117344.3203,0,0,0,0,0,0,0,0,0,0,0,0,0,0,0,0,0,0,168
168,0,0,0,0,0,121892.5781,0,0,0,0,0,0,0,0,0,0,0,0,0,0,0,0,0,0,168
168,0,0,0,0,0,125531.3047,0,0,0,0,0,0,0,0,0,0,0,0,0,0,0,0,0,0,168
168,0,0,0,0,0,130989.1719,0,0,0,0,0,0,0,0,0,0,0,0,0,0,0,0,0,0,168
168,0,0,0,0,0,135537.4688,0,0,0,0,0,0,0,0,0,0,0,0,0,0,0,0,0,0,168
168,0,0,0,0,0,139175.9844,0,0,0,0,0,0,0,0,0,0,0,0,0,0,0,0,0,0,168
168,0,0,0,0,0,143724.2813,0,0,0,0,0,0,0,0,0,0,0,0,0,0,0,0,0,0,168
168,0,0,0,0,0,148273.0156,0,0,0,0,0,0,0,0,0,0,0,0,0,0,0,0,0,0,168
168,0,0,0,0,0,151911.7031,0,0,0,0,0,0,0,0,0,0,0,0,0,0,0,0,0,0,168
168,0,0,0,0,0,156460.2344,0,0,0,0,0,0,0,0,0,0,0,0,0,0,0,0,0,0,168
164,0,0,0,0,0,10004.65039,0,0,0,0,0,0,0,0,0,0,0,0,0,0,0,0,0,0,164
164,0,0,0,0,0,14552.68066,0,0,0,0,0,0,0,0,0,0,0,0,0,0,0,0,0,0,164
164,0,0,0,0,0,18191.08984,0,0,0,0,0,0,0,0,0,0,0,0,0,0,0,0,0,0,164
164,0,0,0,0,0,22739.08008,0,0,0,0,0,0,0,0,0,0,0,0,0,0,0,0,0,0,164
164,0,0,0,0,0,27287.21094,0,0,0,0,0,0,0,0,0,0,0,0,0,0,0,0,0,0,164
164,0,0,0,0,0,30925.96875,0,0,0,0,0,0,0,0,0,0,0,0,0,0,0,0,0,0,164
164,0,0,0,0,0,35474.07031,0,0,0,0,0,0,0,0,0,0,0,0,0,0,0,0,0,0,164
164,0,0,0,0,0,40022.41797,0,0,0,0,0,0,0,0,0,0,0,0,0,0,0,0,0,0,164
164,0,0,0,0,0,44570.98047,0,0,0,0,0,0,0,0,0,0,0,0,0,0,0,0,0,0,164
164,0,0,0,0,0,48209.41016,0,0,0,0,0,0,0,0,0,0,0,0,0,0,0,0,0,0,164
164,0,0,0,0,0,52757.67578,0,0,0,0,0,0,0,0,0,0,0,0,0,0,0,0,0,0,164
164,0,0,0,0,0,57306.24609,0,0,0,0,0,0,0,0,0,0,0,0,0,0,0,0,0,0,164
164,0,0,0,0,0,60944.75,0,0,0,0,0,0,0,0,0,0,0,0,0,0,0,0,0,0,164
164,0,0,0,0,0,65493.07813,0,0,0,0,0,0,0,0,0,0,0,0,0,0,0,0,0,0,164
164,0,0,0,0,0,70041.57031,0,0,0,0,0,0,0,0,0,0,0,0,0,0,0,0,0,0,164
164,0,0,0,0,0,73680.40625,0,0,0,0,0,0,0,0,0,0,0,0,0,0,0,0,0,0,164
164,0,0,0,0,0,78228.73438,0,0,0,0,0,0,0,0,0,0,0,0,0,0,0,0,0,0,164
164,0,0,0,0,0,83687.07031,0,0,0,0,0,0,0,0,0,0,0,0,0,0,0,0,0,0,164
164,0,0,0,0,0,87325.92188,0,0,0,0,0,0,0,0,0,0,0,0,0,0,0,0,0,0,164
164,0,0,0,0,0,91874.08594,0,0,0,0,0,0,0,0,0,0,0,0,0,0,0,0,0,0,164
164,0,0,0,0,0,96422.05469,0,0,0,0,0,0,0,0,0,0,0,0,0,0,0,0,0,0,164
164,0,0,0,0,0,100970.3047,0,0,0,0,0,0,0,0,0,0,0,0,0,0,0,0,0,0,164
164,0,0,0,0,0,105518.6563,0,0,0,0,0,0,0,0,0,0,0,0,0,0,0,0,0,0,164
164,0,0,0,0,0,109157.1797,0,0,0,0,0,0,0,0,0,0,0,0,0,0,0,0,0,0,164
164,0,0,0,0,0,113705.6328,0,0,0,0,0,0,0,0,0,0,0,0,0,0,0,0,0,0,164
164,0,0,0,0,0,118254.2422,0,0,0,0,0,0,0,0,0,0,0,0,0,0,0,0,0,0,164
164,0,0,0,0,0,122802.6563,0,0,0,0,0,0,0,0,0,0,0,0,0,0,0,0,0,0,164
164,0,0,0,0,0,127351.1484,0,0,0,0,0,0,0,0,0,0,0,0,0,0,0,0,0,0,164
164,0,0,0,0,0,131899.4531,0,0,0,0,0,0,0,0,0,0,0,0,0,0,0,0,0,0,164
164,0,0,0,0,0,136447.6563,0,0,0,0,0,0,0,0,0,0,0,0,0,0,0,0,0,0,164
164,0,0,0,0,0,140996.25,0,0,0,0,0,0,0,0,0,0,0,0,0,0,0,0,0,0,164
164,0,0,0,0,0,144635.0469,0,0,0,0,0,0,0,0,0,0,0,0,0,0,0,0,0,0,164
164,0,0,0,0,0,149183.6563,0,0,0,0,0,0,0,0,0,0,0,0,0,0,0,0,0,0,164
164,0,0,0,0,0,152822.3594,0,0,0,0,0,0,0,0,0,0,0,0,0,0,0,0,0,0,164
164,0,0,0,0,0,157370.5313,0,0,0,0,0,0,0,0,0,0,0,0,0,0,0,0,0,0,164
164,0,0,0,0,0,161919.0469,0,0,0,0,0,0,0,0,0,0,0,0,0,0,0,0,0,0,164
164,0,0,0,0,0,165557.5,0,0,0,0,0,0,0,0,0,0,0,0,0,0,0,0,0,0,164
164,0,0,0,0,0,170105.7031,0,0,0,0,0,0,0,0,0,0,0,0,0,0,0,0,0,0,164
164,0,0,0,0,0,174654.3594,0,0,0,0,0,0,0,0,0,0,0,0,0,0,0,0,0,0,164
164,0,0,0,0,0,179202.8594,0,0,0,0,0,0,0,0,0,0,0,0,0,0,0,0,0,0,164
164,0,0,0,0,0,183751.7344,0,0,0,0,0,0,0,0,0,0,0,0,0,0,0,0,0,0,164
164,0,0,0,0,0,188300.0625,0,0,0,0,0,0,0,0,0,0,0,0,0,0,0,0,0,0,164
164,0,0,0,0,0,192848.3281,0,0,0,0,0,0,0,0,0,0,0,0,0,0,0,0,0,0,164
164,0,0,0,0,0,197396.2188,0,0,0,0,0,0,0,0,0,0,0,0,0,0,0,0,0,0,164
164,0,0,0,0,0,201035.0313,0,0,0,0,0,0,0,0,0,0,0,0,0,0,0,0,0,0,164
164,0,0,0,0,0,205583.0156,0,0,0,0,0,0,0,0,0,0,0,0,0,0,0,0,0,0,164
164,0,0,0,0,0,210131.5938,0,0,0,0,0,0,0,0,0,0,0,0,0,0,0,0,0,0,164
164,0,0,0,0,0,214679.9844,0,0,0,0,0,0,0,0,0,0,0,0,0,0,0,0,0,0,164
164,0,0,0,0,0,219228.2188,0,0,0,0,0,0,0,0,0,0,0,0,0,0,0,0,0,0,164
164,0,0,0,0,0,223776.9844,0,0,0,0,0,0,0,0,0,0,0,0,0,0,0,0,0,0,164
3322,0,0,0.292652,35.490002,909.599976,909.663147,0,0,0,0,0,0,0.175343,0.101235,1.233987,-7.565087,0.0625,-0.020833,0.084141,0,0,0,0,0,3322
3412,0,0,0.480425,35.540001,909.690002,909.663147,0,0,0,0,0,0,0.301804,0.174247,1.72979,-9.509525,-0.088437,0.038978,0.068094,0,0,0,0,0,3412
3463,0,1,0.220836,35.580002,909.609985,909.663147,0,0,0,-169.041565,0.61762,192.919235,0.32928,0.19011,1.81838,-9.537503,-0.331572,-0.010957,0.0588,0,0,0,0,0,3463
3514,0,1,0.295899,35.639999,909.690002,909.663147,0,0,0,-169.020203,0.963643,192.932434,0.317725,0.183439,1.909861,-9.551226,-0.408133,-0.056255,0.083578,0,0,0,0,0,3514
3575,0,1,0.258838,35.66,909.609985,909.663147,0,0,0,-169.000412,1.075166,192.93457,0.30316,0.175029,1.969838,-9.55247,-0.398441,-0.047715,0.081364,0,0,0,0,0,3575
3625,0,1,-0.096968,35.669998,909.700012,909.663147,0,0,0,-168.965103,1.124116,192.935577,0.322833,0.186387,2.031309,-9.555131,-0.324718,0.001034,0.097988,0,0,0,0,0,3625
3676,0,1,-0.071789,35.709999,909.799988,909.663147,0,0,0,-168.930008,1.142886,192.936005,0.305739,0.176519,2.042672,-9.558417,-0.154653,0.021322,0.106234,0,0,0,0,0,3676
3727,0,1,-0.106838,35.720001,909.650024,909.663147,0,0,0,-168.900375,1.1538,192.936279,0.326129,0.18829,2.034379,-9.560152,0.005233,0.039056,0.044011,0,0,0,0,0,3727
3787,0,1,0.069008,35.720001,909.659973,909.663147,0,0,0,-168.876862,1.161883,192.936493,0.315467,0.182135,2.012137,-9.56123,0.110381,0.009082,0.058273,0,0,0,0,0,3787
3838,0,1,0.165233,35.740002,909.669983,909.663147,0,0,0,-168.863739,1.166353,192.936646,0.327353,0.188997,2.012397,-9.561083,0.153229,0.017592,0.048053,0,0,0,0,0,3838
3889,0,1,-0.241185,35.75,909.840027,909.663147,0,0,0,-168.854309,1.169606,192.936722,0.309837,0.178885,2.005864,-9.560521,0.208183,-0.015912,0.10296,0,0,0,0,0,3889
3939,0,1,-0.217349,35.73,909.630005,909.663147,0,0,0,-168.836288,1.172065,192.936798,0.316133,0.182519,2.019275,-9.561272,0.236554,0.018551,0.110346,0,0,0,0,0,3939
3990,0,1,-0.30995,35.75,909.799988,909.663147,0,0,0,-168.821671,1.173979,192.936874,0.321281,0.185492,2.020068,-9.561714,0.322641,0.022653,0.161717,0,0,0,0,0,3990
4041,0,1,-0.530308,35.779999,909.76001,909.663147,0,0,0,-168.809998,1.175505,192.936951,0.312784,0.180586,2.011998,-9.562263,0.412262,0.041059,0.158258,0,0,0,0,0,4041
4091,0,1,0.007023,35.77,909.640015,909.663147,0,0,0,-168.80072,1.176747,192.937027,0.318618,0.183954,1.994506,-9.563064,0.457421,0.075907,0.144467,0,0,0,0,0,4091
4142,0,1,-0.092573,35.790001,909.73999,909.663147,0,0,0,-168.79335,1.177775,192.937027,0.332039,0.191703,1.975066,-9.563296,0.416077,0.065439,0.151017,0,0,0,0,0,4142
4193,0,1,-0.162285,35.790001,909.659973,909.663147,0,0,0,-168.787445,1.178638,192.937027,0.333156,0.192348,1.96652,-9.563934,0.340693,0.052925,0.148591,0,0,0,0,0,4193
4243,0,1,-0.083094,35.779999,909.609985,909.663147,0,0,0,-168.782654,1.179372,192.937027,0.328858,0.189866,1.957613,-9.563386,0.280011,0.034102,0.148661,0,0,0,0,0,4243
4294,0,1,0.052841,35.799999,909.669983,909.663147,0,0,0,-168.778763,1.180002,192.937027,0.333241,0.192397,1.949174,-9.563028,0.202826,0.027777,0.146946,0,0,0,0,0,4294
4345,0,1,0.002758,35.779999,909.679993,909.663147,0,0,0,-168.775528,1.180549,192.937027,0.334111,0.192899,1.947264,-9.563352,0.076107,0.009953,0.137677,0,0,0,0,0,4345
4395,0,1,-0.073525,35.77,909.619995,909.663147,0,0,0,-168.772827,1.181027,192.937027,0.330646,0.190898,1.94902,-9.564132,0.011629,0.010421,0.129751,0,0,0,0,0,4395
4456,0,1,-0.290173,35.799999,909.73999,909.663147,0,0,0,-168.770126,1.181527,192.937027,0.330478,0.190802,1.95349,-9.564306,-0.056042,0.01219,0.117955,0,0,0,0,0,4456
4507,0,1,-0.336519,35.810001,909.679993,909.663147,0,0,0,-168.768265,1.181893,192.937027,0.331707,0.191511,1.95539,-9.564287,-0.043077,0.007047,0.116187,0,0,0,0,0,4507
4567,0,1,0.364039,35.790001,909.590027,909.663147,0,0,0,-168.766373,1.182281,192.937027,0.334589,0.193175,1.949093,-9.566703,-0.022308,0.003477,0.086498,0,0,0,0,0,4567
4618,0,1,-0.156716,35.82,909.809998,909.663147,0,0,0,-168.765015,1.182568,192.937027,0.332465,0.191949,1.945332,-9.56919,-0.055559,-0.00406,0.081053,0,0,0,0,0,4618
4669,0,1,-0.382978,35.830002,909.710022,909.663147,0,0,0,-168.763855,1.182828,192.937027,0.333173,0.192357,1.946699,-9.571213,-0.086133,-0.011889,0.056661,0,0,0,0,0,4669
4719,0,1,0.031975,35.77,909.630005,909.663147,0,0,0,-168.762833,1.183063,192.937027,0.332661,0.192062,1.952786,-9.574331,-0.117429,-0.034265,0.02066,0,0,0,0,0,4719
4770,0,1,0.024271,35.810001,909.650024,909.663147,0,0,0,-168.761932,1.180791,192.937027,0.330628,0.190888,1.953418,-9.576858,-0.134993,-0.018087,-0.010633,0,0,0,0,0,4770
4821,0,1,-0.03996,35.810001,909.679993,909.663147,0,0,0,-168.75853,1.179867,192.937027,0.327014,0.188802,1.959143,-9.5795,-0.272538,0.047684,0.017644,0,0,0,0,0,4821
4881,0,1,-0.150859,35.810001,909.630005,909.663147,0,0,0,-168.74855,1.180321,192.937027,0.325748,0.188071,1.974821,-9.580381,-0.475606,0.279489,-0.021138,0,0,0,0,0,4881
4932,0,1,-0.246668,35.82,909.700012,909.663147,0,0,0,-168.738068,1.180666,192.937027,0.332173,0.19178,1.973467,-9.581777,-0.080575,0.175026,0.063448,0,0,0,0,0,4932
4983,0,1,0.119083,35.790001,909.549988,909.663147,0,0,0,-168.727341,1.180982,192.937439,0.333649,0.192632,1.96128,-9.583662,0.124588,-0.010101,0.32726,0,0,0,0,0,4983
5033,0,1,0.137629,35.810001,909.669983,909.663147,-0.015204,0,-0.015204,-168.716812,1.181274,192.93959,0.330616,0.190881,1.956545,-9.585549,0.096875,-0.102109,0.407769,0,0,0,0,0,5033
5093,0,1,-0.161113,35.779999,909.650024,909.663147,-0.015204,0,-0.015204,-168.706787,1.181544,192.941818,0.338038,0.195166,1.959116,-9.587441,-0.000106,-0.085715,0.253954,0,0,0,0,0,5093
5148,0,1,0.288885,35.77,909.539978,909.663147,-0.015204,0,-0.015204,-168.697556,1.181795,192.944107,0.328229,0.189503,1.972116,-9.588278,-0.041552,-0.111474,0.192714,0,0,0,0,0,5148
5216,0,1,-0.16667,35.82,909.72998,909.663147,-0.445571,0,-0.445571,-168.683075,1.182071,192.946945,0.327728,0.189214,1.996322,-9.589953,0.054293,-0.084415,0.288212,0,0,0,0,0,5216
5277,0,1,-0.472099,35.82,909.789978,909.663147,-0.445571,0,-0.445571,-168.664993,1.182326,192.949783,0.326662,0.188598,1.998963,-9.591492,0.222447,-0.032456,0.283759,0,0,0,0,0,5277
5327,0,1,-0.104227,35.810001,909.719971,909.663147,-0.445571,0,-0.445571,-168.65126,1.182522,192.952148,0.331547,0.191419,1.993708,-9.592606,0.310285,-0.006761,0.178381,0,0,0,0,0,5327
5378,0,1,0.118614,35.790001,909.580017,909.663147,-0.445571,0,-0.445571,-168.639114,1.182706,192.954514,0.32718,0.188898,1.987326,-9.593639,0.346936,-0.005808,0.113839,0,0,0,0,0,5378
5429,0,1,0.219507,35.790001,909.570007,909.663147,0.934438,0.934438,-0.445571,-168.628632,1.182878,192.956833,0.330431,0.190774,1.984445,-9.593864,0.354269,0.0086,0.072991,0,0,0,0,0,5429
5479,0,1,0.202533,35.790001,909.599976,909.663147,0.934438,0.934438,-0.445571,-168.619766,1.183039,192.959091,0.335001,0.193413,1.977187,-9.595188,0.342239,-0.008944,0.076679,0,0,0,0,0,5479
5530,0,1,0.000463,35.830002,909.76001,909.663147,0.934438,0.934438,-0.445571,-168.612305,1.183191,192.961288,0.337963,0.195123,1.961221,-9.596334,0.303104,-0.024413,0.089879,0,0,0,0,0,5530
5570,0,1,-0.060696,35.830002,909.75,909.663147,0.934438,0.934438,-0.445571,-168.607208,1.183306,192.962982,0.333606,0.192607,1.949975,-9.59658,0.260461,-0.061255,0.168272,0,0,0,0,0,5570
5621,0,1,0.16036,35.810001,909.599976,909.663147,0.68115,0.934438,-0.445571,-168.601807,1.183443,192.965012,0.337677,0.194958,1.953041,-9.598016,0.193432,-0.093237,0.316833,0,0,0,0,0,5621
5672,0,1,-0.174876,35.830002,909.690002,909.663147,0.68115,0.934438,-0.445571,-168.59729,1.183572,192.966949,0.329401,0.19018,1.964275,-9.599085,0.108878,-0.08452,0.242005,0,0,0,0,0,5672
5732,0,1,-0.311228,35.830002,909.76001,909.663147,0.68115,0.934438,-0.445571,-168.592773,1.183717,192.969147,0.33696,0.194544,1.955141,-9.600493,0.050141,-0.020327,0.074233,0,0,0,0,0,5732
5783,0,1,0.113432,35.82,909.599976,909.663147,0.68115,0.934438,-0.445571,-168.589645,1.183831,192.970871,0.344374,0.198825,1.946847,-9.600947,-0.058408,-0.024169,-0.0931,0,0,0,0,0,5783
5844,0,1,-0.189689,35.849998,909.75,909.663147,-1.920416,0.934438,-1.920416,-168.586487,1.183959,192.972809,0.331014,0.191111,1.962617,-9.601274,-0.129341,-0.031435,-0.137159,0,0,0,0,0,5844
5894,0,1,0.233047,35.830002,909.619995,909.663147,-1.920416,0.934438,-1.920416,-168.584274,1.184061,192.974304,0.333602,0.192605,1.961385,-9.601578,-0.152685,0.03184,-0.184961,0,0,0,0,0,5894
5945,0,1,0.177933,35.82,909.609985,909.663147,-1.920416,0.934438,-1.920416,-168.582352,1.184157,192.975708,0.349408,0.201731,1.962859,-9.603686,-0.156891,0.042146,-0.293381,0,0,0,0,0,5945
6014,0,1,-0.310103,35.84,909.799988,909.663147,-1.920416,0.934438,-1.920416,-168.580383,1.184267,192.977295,0.334372,0.19305,1.981489,-9.603519,-0.044993,0.002019,-0.125481,0,0,0,0,0,6014
6056,0,1,-0.050298,35.799999,909.599976,909.663147,0.223314,0.934438,-1.920416,-168.579254,1.184336,192.978271,0.34114,0.196957,1.981991,-9.604149,0.052763,0.023616,-0.068824,0,0,0,0,0,6056
6107,0,1,0.245159,35.830002,909.52002,909.663147,0.223314,0.934438,-1.920416,-168.577011,1.184419,192.979431,0.343909,0.198556,1.978644,-9.603956,0.151285,0.023225,-0.017383,0,0,0,0,0,6107
6158,0,1,0.188605,35.830002,909.640015,909.663147,0.223314,0.934438,-1.920416,-168.575943,1.184499,192.981827,0.342368,0.197666,1.969126,-9.604413,0.177612,0.002415,0.203295,0,0,0,0,0,6158
6208,0,1,0.40452,35.830002,909.52002,909.663147,0.223314,0.934438,-1.920416,-168.574112,1.184575,192.986343,0.336896,0.194507,1.979183,-9.604839,0.188056,-0.005597,0.105659,0,0,0,0,0,6208
6259,0,1,-0.264232,35.830002,909.72998,909.663147,1.414169,1.414169,-1.920416,-168.570663,1.184647,192.990967,0.333333,0.19245,1.976111,-9.60489,0.289157,-0.057398,0.67133,0,0,0,0,0,6259
6310,0,1,0.047385,35.830002,909.659973,909.663147,1.414169,1.414169,-1.920416,-168.570099,1.184716,193.001923,0.350462,0.202339,1.982504,-9.606043,0.41137,-0.184739,1.04015,0,0,0,0,0,6310
6370,0,1,-0.136876,35.810001,909.669983,909.663147,1.414169,1.414169,-1.920416,-168.569595,1.184783,193.017746,0.334651,0.193211,1.978011,-9.606633,0.39228,-0.135724,0.080522,0,0,0,0,0,6370
6428,0,1,0.098901,35.810001,909.659973,909.663147,1.414169,1.414169,-1.920416,-168.569138,1.184846,193.032593,0.349197,0.201609,1.963468,-9.606604,0.350106,-0.03663,-0.236852,0,0,0,0,0,6428
6483,0,1,-0.362996,35.830002,909.719971,909.663147,-0.588683,1.414169,-1.920416,-168.568756,1.184907,193.043015,0.350481,0.20235,1.951065,-9.606333,0.243051,-0.018184,-0.154485,0,0,0,0,0,6483
6542,0,1,-0.006876,35.810001,909.679993,909.663147,-0.588683,1.414169,-1.920416,-168.56839,1.184966,193.052567,0.341674,0.197265,1.957579,-9.607063,0.13239,0.025081,-0.254821,0,0,0,0,0,6542
6602,0,1,-0.213797,35.82,909.690002,909.663147,-0.588683,1.414169,-1.920416,-168.568085,1.185022,193.061096,0.342746,0.197884,1.96855,-9.607101,0.115339,0.052357,-0.270358,0,0,0,0,0,6602
6664,0,1,-0.17981,35.799999,909.580017,909.663147,-1.385148,1.414169,-1.920416,-168.567719,1.185087,193.069977,0.329263,0.1901,1.997203,-9.607391,0.257627,0.048111,-0.259065,0,0,0,0,0,6664
6715,0,1,0.064852,35.810001,909.580017,909.663147,-1.385148,1.414169,-1.920416,-168.567474,1.185138,193.076309,0.326932,0.188754,2.002583,-9.607494,0.519731,0.076715,-0.198073,0,0,0,0,0,6715
6765,0,1,-0.267971,35.84,909.75,909.663147,-1.385148,1.414169,-1.920416,-168.569077,1.185188,193.081757,0.319936,0.184715,1.983893,-9.60759,0.740748,0.09503,-0.128652,0,0,0,0,0,6765
6816,0,1,-0.234159,35.830002,909.659973,909.663147,-1.385148,1.414169,-1.920416,-168.573212,1.185236,193.086441,0.330402,0.190757,1.943918,-9.60805,0.796488,0.092347,0.010551,0,0,0,0,0,6816
6867,0,1,-0.105889,35.84,909.700012,909.663147,1.6776,1.6776,-1.920416,-168.579758,1.185282,193.090469,0.333662,0.19264,1.903177,-9.608493,0.431646,0.15163,0.010628,0,0,0,0,0,6867
173,0,0,0,0,0,10914.20117,0,0,0,0,0,0,0,0,0,0,0,0,0,0,0,0,0,0,173
173,0,0,0,0,0,15461.74121,0,0,0,0,0,0,0,0,0,0,0,0,0,0,0,0,0,0,173
173,0,0,0,0,0,19100.30078,0,0,0,0,0,0,0,0,0,0,0,0,0,0,0,0,0,0,173
173,0,0,0,0,0,22738.88086,0,0,0,0,0,0,0,0,0,0,0,0,0,0,0,0,0,0,173
173,0,0,0,0,0,27286.8125,0,0,0,0,0,0,0,0,0,0,0,0,0,0,0,0,0,0,173
173,0,0,0,0,0,31835.02344,0,0,0,0,0,0,0,0,0,0,0,0,0,0,0,0,0,0,173
173,0,0,0,0,0,35473.41406,0,0,0,0,0,0,0,0,0,0,0,0,0,0,0,0,0,0,173
173,0,0,0,0,0,40021.32813,0,0,0,0,0,0,0,0,0,0,0,0,0,0,0,0,0,0,173
173,0,0,0,0,0,43659.82813,0,0,0,0,0,0,0,0,0,0,0,0,0,0,0,0,0,0,173
173,0,0,0,0,0,48208.07031,0,0,0,0,0,0,0,0,0,0,0,0,0,0,0,0,0,0,173
173,0,0,0,0,0,51846.5,0,0,0,0,0,0,0,0,0,0,0,0,0,0,0,0,0,0,173
173,0,0,0,0,0,56394.60547,0,0,0,0,0,0,0,0,0,0,0,0,0,0,0,0,0,0,173
173,0,0,0,0,0,60033.15234,0,0,0,0,0,0,0,0,0,0,0,0,0,0,0,0,0,0,173
173,0,0,0,0,0,64581.41797,0,0,0,0,0,0,0,0,0,0,0,0,0,0,0,0,0,0,173
173,0,0,0,0,0,69129.83594,0,0,0,0,0,0,0,0,0,0,0,0,0,0,0,0,0,0,173
173,0,0,0,0,0,72768.22656,0,0,0,0,0,0,0,0,0,0,0,0,0,0,0,0,0,0,173
173,0,0,0,0,0,77316.53125,0,0,0,0,0,0,0,0,0,0,0,0,0,0,0,0,0,0,173
173,0,0,0,0,0,80955.15625,0,0,0,0,0,0,0,0,0,0,0,0,0,0,0,0,0,0,173
173,0,0,0,0,0,85503.13281,0,0,0,0,0,0,0,0,0,0,0,0,0,0,0,0,0,0,173
173,0,0,0,0,0,90051.26563,0,0,0,0,0,0,0,0,0,0,0,0,0,0,0,0,0,0,173
173,0,0,0,0,0,94598.63281,0,0,0,0,0,0,0,0,0,0,0,0,0,0,0,0,0,0,173
173,0,0,0,0,0,99147.03906,0,0,0,0,0,0,0,0,0,0,0,0,0,0,0,0,0,0,173
173,0,0,0,0,0,103695.1563,0,0,0,0,0,0,0,0,0,0,0,0,0,0,0,0,0,0,173
173,0,0,0,0,0,108243.6328,0,0,0,0,0,0,0,0,0,0,0,0,0,0,0,0,0,0,173
173,0,0,0,0,0,112791.7969,0,0,0,0,0,0,0,0,0,0,0,0,0,0,0,0,0,0,173
173,0,0,0,0,0,117340.1797,0,0,0,0,0,0,0,0,0,0,0,0,0,0,0,0,0,0,173
173,0,0,0,0,0,120978.625,0,0,0,0,0,0,0,0,0,0,0,0,0,0,0,0,0,0,173
173,0,0,0,0,0,125526.8281,0,0,0,0,0,0,0,0,0,0,0,0,0,0,0,0,0,0,173
173,0,0,0,0,0,130074.8203,0,0,0,0,0,0,0,0,0,0,0,0,0,0,0,0,0,0,173
173,0,0,0,0,0,134623,0,0,0,0,0,0,0,0,0,0,0,0,0,0,0,0,0,0,173
173,0,0,0,0,0,139171.3594,0,0,0,0,0,0,0,0,0,0,0,0,0,0,0,0,0,0,173
173,0,0,0,0,0,143719.7188,0,0,0,0,0,0,0,0,0,0,0,0,0,0,0,0,0,0,173
173,0,0,0,0,0,147358.2969,0,0,0,0,0,0,0,0,0,0,0,0,0,0,0,0,0,0,173
173,0,0,0,0,0,151906.7813,0,0,0,0,0,0,0,0,0,0,0,0,0,0,0,0,0,0,173
173,0,0,0,0,0,156455.2031,0,0,0,0,0,0,0,0,0,0,0,0,0,0,0,0,0,0,173
173,0,0,0,0,0,161003.4531,0,0,0,0,0,0,0,0,0,0,0,0,0,0,0,0,0,0,173
173,0,0,0,0,0,164641.9219,0,0,0,0,0,0,0,0,0,0,0,0,0,0,0,0,0,0,173
173,0,0,0,0,0,169190.4063,0,0,0,0,0,0,0,0,0,0,0,0,0,0,0,0,0,0,173
173,0,0,0,0,0,172828.9219,0,0,0,0,0,0,0,0,0,0,0,0,0,0,0,0,0,0,173
173,0,0,0,0,0,176467.5625,0,0,0,0,0,0,0,0,0,0,0,0,0,0,0,0,0,0,173
173,0,0,0,0,0,181925.7188,0,0,0,0,0,0,0,0,0,0,0,0,0,0,0,0,0,0,173
173,0,0,0,0,0,186473.8125,0,0,0,0,0,0,0,0,0,0,0,0,0,0,0,0,0,0,173
173,0,0,0,0,0,191022.3438,0,0,0,0,0,0,0,0,0,0,0,0,0,0,0,0,0,0,173
173,0,0,0,0,0,194660.6875,0,0,0,0,0,0,0,0,0,0,0,0,0,0,0,0,0,0,173
173,0,0,0,0,0,199208.7813,0,0,0,0,0,0,0,0,0,0,0,0,0,0,0,0,0,0,173
173,0,0,0,0,0,203756.7969,0,0,0,0,0,0,0,0,0,0,0,0,0,0,0,0,0,0,173
173,0,0,0,0,0,208304.7656,0,0,0,0,0,0,0,0,0,0,0,0,0,0,0,0,0,0,173
173,0,0,0,0,0,211943.4063,0,0,0,0,0,0,0,0,0,0,0,0,0,0,0,0,0,0,173
173,0,0,0,0,0,216491.875,0,0,0,0,0,0,0,0,0,0,0,0,0,0,0,0,0,0,173
173,0,0,0,0,0,220130.375,0,0,0,0,0,0,0,0,0,0,0,0,0,0,0,0,0,0,173
168,0,0,0,0,0,10043.57031,0,0,0,0,0,0,0,0,0,0,0,0,0,0,0,0,0,0,168
168,0,0,0,0,0,14608.41016,0,0,0,0,0,0,0,0,0,0,0,0,0,0,0,0,0,0,168
168,0,0,0,0,0,18260.55078,0,0,0,0,0,0,0,0,0,0,0,0,0,0,0,0,0,0,168
168,0,0,0,0,0,22825.71094,0,0,0,0,0,0,0,0,0,0,0,0,0,0,0,0,0,0,168
168,0,0,0,0,0,27391.49023,0,0,0,0,0,0,0,0,0,0,0,0,0,0,0,0,0,0,168
168,0,0,0,0,0,31957.08203,0,0,0,0,0,0,0,0,0,0,0,0,0,0,0,0,0,0,168
168,0,0,0,0,0,35609.33203,0,0,0,0,0,0,0,0,0,0,0,0,0,0,0,0,0,0,168
168,0,0,0,0,0,39261.71484,0,0,0,0,0,0,0,0,0,0,0,0,0,0,0,0,0,0,168
168,0,0,0,0,0,43827.5625,0,0,0,0,0,0,0,0,0,0,0,0,0,0,0,0,0,0,168
168,0,0,0,0,0,48393.08594,0,0,0,0,0,0,0,0,0,0,0,0,0,0,0,0,0,0,168
168,0,0,0,0,0,52045.83594,0,0,0,0,0,0,0,0,0,0,0,0,0,0,0,0,0,0,168
168,0,0,0,0,0,56611.4375,0,0,0,0,0,0,0,0,0,0,0,0,0,0,0,0,0,0,168
168,0,0,0,0,0,61177.11719,0,0,0,0,0,0,0,0,0,0,0,0,0,0,0,0,0,0,168
168,0,0,0,0,0,65742.65625,0,0,0,0,0,0,0,0,0,0,0,0,0,0,0,0,0,0,168
168,0,0,0,0,0,70308.14063,0,0,0,0,0,0,0,0,0,0,0,0,0,0,0,0,0,0,168
168,0,0,0,0,0,74873.79688,0,0,0,0,0,0,0,0,0,0,0,0,0,0,0,0,0,0,168
168,0,0,0,0,0,79439.60938,0,0,0,0,0,0,0,0,0,0,0,0,0,0,0,0,0,0,168
168,0,0,0,0,0,84005.35938,0,0,0,0,0,0,0,0,0,0,0,0,0,0,0,0,0,0,168
168,0,0,0,0,0,89484.15625,0,0,0,0,0,0,0,0,0,0,0,0,0,0,0,0,0,0,168
168,0,0,0,0,0,94049.28125,0,0,0,0,0,0,0,0,0,0,0,0,0,0,0,0,0,0,168
168,0,0,0,0,0,98614.94531,0,0,0,0,0,0,0,0,0,0,0,0,0,0,0,0,0,0,168
168,0,0,0,0,0,103181.0938,0,0,0,0,0,0,0,0,0,0,0,0,0,0,0,0,0,0,168
168,0,0,0,0,0,107746.9766,0,0,0,0,0,0,0,0,0,0,0,0,0,0,0,0,0,0,168
168,0,0,0,0,0,112312.7813,0,0,0,0,0,0,0,0,0,0,0,0,0,0,0,0,0,0,168
168,0,0,0,0,0,116878.7891,0,0,0,0,0,0,0,0,0,0,0,0,0,0,0,0,0,0,168
168,0,0,0,0,0,120531.5938,0,0,0,0,0,0,0,0,0,0,0,0,0,0,0,0,0,0,168
168,0,0,0,0,0,125097.4297,0,0,0,0,0,0,0,0,0,0,0,0,0,0,0,0,0,0,168
168,0,0,0,0,0,129663.1641,0,0,0,0,0,0,0,0,0,0,0,0,0,0,0,0,0,0,168
168,0,0,0,0,0,134229.0313,0,0,0,0,0,0,0,0,0,0,0,0,0,0,0,0,0,0,168
168,0,0,0,0,0,138795.1563,0,0,0,0,0,0,0,0,0,0,0,0,0,0,0,0,0,0,168
168,0,0,0,0,0,143361.0938,0,0,0,0,0,0,0,0,0,0,0,0,0,0,0,0,0,0,168
168,0,0,0,0,0,147926.9688,0,0,0,0,0,0,0,0,0,0,0,0,0,0,0,0,0,0,168
168,0,0,0,0,0,152492.9375,0,0,0,0,0,0,0,0,0,0,0,0,0,0,0,0,0,0,168
168,0,0,0,0,0,157058.5,0,0,0,0,0,0,0,0,0,0,0,0,0,0,0,0,0,0,168
168,0,0,0,0,0,161624.5,0,0,0,0,0,0,0,0,0,0,0,0,0,0,0,0,0,0,168
168,0,0,0,0,0,166190.4531,0,0,0,0,0,0,0,0,0,0,0,0,0,0,0,0,0,0,168
168,0,0,0,0,0,170756.1406,0,0,0,0,0,0,0,0,0,0,0,0,0,0,0,0,0,0,168
168,0,0,0,0,0,175321.8125,0,0,0,0,0,0,0,0,0,0,0,0,0,0,0,0,0,0,168
168,0,0,0,0,0,179887.7188,0,0,0,0,0,0,0,0,0,0,0,0,0,0,0,0,0,0,168
168,0,0,0,0,0,184453.7813,0,0,0,0,0,0,0,0,0,0,0,0,0,0,0,0,0,0,168
168,0,0,0,0,0,189019.8594,0,0,0,0,0,0,0,0,0,0,0,0,0,0,0,0,0,0,168
168,0,0,0,0,0,193585.8906,0,0,0,0,0,0,0,0,0,0,0,0,0,0,0,0,0,0,168
168,0,0,0,0,0,198150.875,0,0,0,0,0,0,0,0,0,0,0,0,0,0,0,0,0,0,168
168,0,0,0,0,0,201803.1875,0,0,0,0,0,0,0,0,0,0,0,0,0,0,0,0,0,0,168
168,0,0,0,0,0,206368.9219,0,0,0,0,0,0,0,0,0,0,0,0,0,0,0,0,0,0,168
168,0,0,0,0,0,210021.7656,0,0,0,0,0,0,0,0,0,0,0,0,0,0,0,0,0,0,168
168,0,0,0,0,0,214587.3906,0,0,0,0,0,0,0,0,0,0,0,0,0,0,0,0,0,0,168
168,0,0,0,0,0,219153.0156,0,0,0,0,0,0,0,0,0,0,0,0,0,0,0,0,0,0,168
168,0,0,0,0,0,223718.9219,0,0,0,0,0,0,0,0,0,0,0,0,0,0,0,0,0,0,168
168,0,0,0,0,0,227371.5,0,0,0,0,0,0,0,0,0,0,0,0,0,0,0,0,0,0,168
3362,0,0,1.261039,21.76,913.01001,913.138794,0,0,0,0,0,59.989578,13.132501,-7.582053,7.341096,0.292555,-0.040148,0.041247,0.738197,0,0,0,0,0,3362
3432,0,1,1.458003,21.809999,912.859985,913.138794,0,0,0,-86.453392,-44.617165,359.9328,13.284918,-7.670051,7.421424,0.327824,-0.097041,-0.039234,0.553507,0,0,0,0,0,3432
3483,0,1,0.834717,21.84,912.960022,913.138794,0,0,0,-87.172073,-45.846653,359.935394,13.283048,-7.668971,7.42461,0.331807,-0.053272,-0.052757,0.24207,0,0,0,0,0,3483
3533,0,1,0.567143,21.879999,913.150024,913.138794,0,0,0,-87.180054,-45.875362,359.936157,13.324337,-7.69281,7.448716,0.33747,-0.029088,-0.044475,-0.206519,0,0,0,0,0,3533
3583,0,1,0.427256,21.91,913.179993,913.138794,0,0,0,-87.182625,-45.898426,359.936523,13.311619,-7.685467,7.428334,0.336325,-0.008677,-0.048777,-0.207755,0,0,0,0,0,3583
3634,0,1,0.507985,21.92,913.039978,913.138794,0,0,0,-87.183876,-45.898743,359.934113,13.338223,-7.700826,7.429079,0.338019,-0.000444,-0.054233,0.275135,0,0,0,0,0,3634
3694,0,1,-0.287826,21.950001,913.369995,913.138794,0,0,0,-87.184731,-45.877823,359.912048,13.341745,-7.70286,7.429067,0.337198,-0.008552,-0.070038,1.866384,0,0,0,0,0,3694
3745,0,1,-0.388502,21.950001,913.159973,913.138794,0,0,0,-87.185188,-45.831936,359.87088,13.323718,-7.692452,7.429893,0.335995,0.000409,-0.075725,2.589164,0,0,0,0,0,3745
3806,0,1,-0.134437,21.969999,913.090027,913.138794,0,0,0,-87.185524,-45.764435,359.803406,13.317419,-7.688816,7.447313,0.337183,-0.008743,-0.073295,2.363087,0,0,0,0,0,3806
3856,0,1,0.261552,21.98,913.059998,913.138794,0,0,0,-87.185814,-45.665714,359.698517,13.296441,-7.676704,7.456758,0.337334,-0.013166,-0.069224,1.473719,0,0,0,0,0,3856
3906,0,1,0.326325,21.99,913.070007,913.138794,0,0,0,-87.185997,-45.596252,359.618011,13.28833,-7.672021,7.465238,0.338556,-0.012114,-0.061503,0.26909,0,0,0,0,0,3906
3957,0,1,0.115395,22,913.159973,913.138794,0,0,0,-87.18615,-45.557663,359.575409,13.285241,-7.670238,7.47353,0.339251,-0.015816,-0.053807,-0.662692,0,0,0,0,0,3957
4007,0,1,-0.045094,22,913.140015,913.138794,0,0,0,-87.186264,-45.549591,359.562439,13.275632,-7.66469,7.47184,0.339669,-0.007624,-0.055233,-1.067453,0,0,0,0,0,4007
4068,0,1,0.07459,21.99,913.070007,913.138794,0,0,0,-87.186386,-45.565769,359.5784,13.281678,-7.66818,7.475515,0.340504,-0.011718,-0.047796,-1.681374,0,0,0,0,0,4068
4118,0,1,0.238818,22.02,913.080017,913.138794,0,0,0,-87.186462,-45.597912,359.608215,13.281296,-7.66796,7.473959,0.341385,-0.018915,-0.052509,-1.864386,0,0,0,0,0,4118
4169,0,1,0.1612,22.02,913.130005,913.138794,0,0,0,-87.186539,-45.644302,359.65799,13.288755,-7.672266,7.468416,0.34186,-0.014677,-0.044708,-1.922435,0,0,0,0,0,4169
4229,0,1,0.122825,22.030001,913.059998,913.138794,0,0,0,-87.18663,-45.719563,359.733002,13.304914,-7.681596,7.467551,0.342258,-0.005642,-0.043821,-1.618421,0,0,0,0,0,4229
4280,0,1,-0.063381,22.040001,913.27002,913.138794,0,0,0,-87.186668,-45.777973,359.787628,13.306412,-7.68246,7.456963,0.342631,0.000069,-0.0469,-0.877264,0,0,0,0,0,4280
4330,0,1,-0.173599,22.040001,913.23999,913.138794,0,0,0,-87.186707,-45.820629,359.827087,13.318355,-7.689356,7.456353,0.343096,0.001692,-0.041986,-0.330834,0,0,0,0,0,4330
4391,0,1,-0.084566,22.030001,913.130005,913.138794,0,0,0,-87.186745,-45.850018,359.854248,13.322331,-7.691652,7.452405,0.343285,-0.001355,-0.047065,0.065083,0,0,0,0,0,4391
4431,0,1,-0.124721,22.030001,913.190002,913.138794,0,0,0,-87.186783,-45.870129,359.872925,13.325356,-7.693398,7.447901,0.342225,0.000237,-0.055252,0.266158,0,0,0,0,0,4431
4483,0,1,-0.189357,22.030001,913.090027,913.138794,0,0,0,-87.186821,-45.884129,359.886047,13.328063,-7.694961,7.448545,0.342333,-0.005239,-0.053085,0.225336,0,0,0,0,0,4483
4555,0,1,-0.101901,22.02,913.179993,913.138794,0,0,0,-87.186867,-45.895771,359.897034,13.232358,-7.639706,7.384116,0.342036,-0.001964,-0.040398,0.015175,0,0,0,0,0,4555
4613,0,1,0.20849,22.030001,913.109985,913.138794,0,0,0,-87.186905,-45.907013,0.022504,13.027117,-7.521209,7.255295,0.340662,-0.009449,-0.017423,-0.351948,0,0,0,0,0,4613
4663,0,1,-0.044614,22.02,913.190002,913.138794,0,0,0,-87.186943,-45.922085,0.003296,12.820599,-7.401976,7.11217,0.339043,-0.009698,-0.012256,-0.508444,0,0,0,0,0,4663
4723,0,1,0.307359,22.040001,913.099976,913.138794,0,0,0,-87.186981,-45.934429,0.00177,12.660426,-7.309501,6.991295,0.337642,-0.005022,-0.022355,-0.373117,0,0,0,0,0,4723
4774,0,1,0.320005,22.02,913.02002,913.138794,0,0,0,-87.187019,-45.944412,0.001209,12.551491,-7.246607,6.921819,0.336334,-0.010675,-0.022235,0.239714,0,0,0,0,0,4774
4834,0,1,0.470069,22.02,913.039978,913.138794,0,0,0,-87.187019,-45.943439,359.576447,12.492522,-7.212561,6.896719,0.33489,-0.015994,-0.020499,0.709101,0,0,0,0,0,4834
4886,0,1,-0.108691,22.040001,913.119995,913.138794,0,0,0,-87.187019,-45.936253,359.895264,12.429537,-7.176197,6.876879,0.333758,-0.015672,-0.024381,0.970569,0,0,0,0,0,4886
4946,0,1,0.045858,22.02,913.150024,913.138794,0,0,0,-87.187019,-45.921913,359.865051,12.401803,-7.160184,6.870857,0.332598,-0.011418,-0.043572,1.064833,0,0,0,0,0,4946
4998,0,1,0.507732,22.02,913.059998,913.138794,0,0,0,-87.187019,-45.899635,359.845917,12.377157,-7.145955,6.872706,0.330871,-0.011403,-0.050791,0.828867,0,0,0,0,0,4998
5057,0,1,-0.027417,22.040001,913.330017,913.138794,0.06662,0.06662,0,-87.187019,-45.876503,359.836548,12.35578,-7.133613,6.870079,0.329554,-0.014079,-0.054265,0.445082,0,0,0,0,0,5057
5111,0,1,-0.167346,22.030001,913.159973,913.138794,0.06662,0.06662,0,-87.187019,-45.860153,359.831085,12.348708,-7.12953,6.869149,0.329164,-0.00851,-0.032093,-0.245581,0,0,0,0,0,5111
5158,0,1,0.130078,22.030001,913.150024,913.138794,0.06662,0.06662,0,-87.187019,-45.85408,359.828156,12.342907,-7.126181,6.866466,0.32838,-0.003694,-0.031918,-0.536308,0,0,0,0,0,5158
5209,0,1,0.157028,22.040001,913.109985,913.138794,0.06662,0.06662,0,-87.187019,-45.848,359.83194,12.344267,-7.126966,6.858325,0.327256,-0.005956,-0.015295,-0.548534,0,0,0,0,0,5209
5279,0,1,-0.479415,22.030001,913.169983,913.138794,-3.028206,0.06662,-3.028206,-87.187019,-45.841557,359.838898,12.343875,-7.12674,6.853593,0.326373,-0.01183,-0.011953,-0.0558,0,0,0,0,0,5279
5335,0,1,-0.036783,22.030001,913.090027,913.138794,-3.028206,0.06662,-3.028206,-87.187019,-45.83646,359.833527,12.337665,-7.123154,6.850712,0.325977,-0.006298,-0.013966,0.69108,0,0,0,0,0,5335
5390,0,1,-0.05812,22.049999,913.109985,913.138794,-3.028206,0.06662,-3.028206,-87.187019,-45.824451,359.822388,12.327011,-7.117003,6.8517,0.325043,-0.008249,-0.022521,0.923316,0,0,0,0,0,5390
5449,0,1,0.061507,22.040001,913.159973,913.138794,1.885038,1.885038,-3.028206,-87.187019,-45.806717,359.807526,12.317715,-7.111636,6.854961,0.324535,-0.008909,-0.020567,0.468147,0,0,0,0,0,5449
5502,0,1,-0.045372,22.030001,913.070007,913.138794,1.885038,1.885038,-3.028206,-87.187019,-45.802567,359.80661,12.305447,-7.104553,6.855203,0.324061,-0.005269,-0.026637,-2.535224,0,0,0,0,0,5502
5562,0,1,0.07965,22.040001,913.159973,913.138794,1.885038,1.885038,-3.028206,-87.187019,-45.833271,0.146615,12.316657,-7.111025,6.849288,0.323134,-0.009787,-0.011101,-4.306024,0,0,0,0,0,5562
5614,0,1,0.204667,22.040001,913.070007,913.138794,1.885038,1.885038,-3.028206,-87.187019,-45.894711,0.182291,12.33632,-7.122378,6.830358,0.322107,-0.00036,-0.009547,-2.302545,0,0,0,0,0,5614
5673,0,1,-0.291755,22.040001,913.26001,913.138794,-0.530674,1.885038,-3.028206,-87.187019,-45.949501,0.160458,12.350253,-7.130422,6.814964,0.321925,-0.008839,-0.011741,2.541595,0,0,0,0,0,5673
5726,0,1,0.120148,22.040001,913.130005,913.138794,-0.530674,1.885038,-3.028206,-87.187019,-45.957878,332.823456,12.346109,-7.128029,6.824391,0.321754,-0.007925,-0.009607,2.781637,0,0,0,0,0,5726
5784,0,1,0.106223,22.040001,913.169983,913.138794,-0.530674,1.885038,-3.028206,-87.187019,-45.941216,359.886993,12.337347,-7.122971,6.823829,0.321509,-0.010122,-0.001764,0.004455,0,0,0,0,0,5784
5840,0,1,0.571997,22.040001,912.919983,913.138794,2.846895,2.846895,-3.028206,-87.187019,-45.947376,0.191604,12.345111,-7.127453,6.818772,0.32111,-0.011966,0.001092,-2.1455,0,0,0,0,0,5840
5895,0,1,0.307431,22.059999,913.23999,913.138794,2.846895,2.846895,-3.028206,-87.187019,-45.967224,0.066285,12.356849,-7.13423,6.80605,0.321064,-0.006324,-0.001369,-0.664416,0,0,0,0,0,5895
5954,0,1,0.135067,22.040001,913.179993,913.138794,2.846895,2.846895,-3.028206,-87.187019,-45.979038,0.051821,12.359209,-7.135593,6.796183,0.320704,-0.011287,-0.002906,0.956392,0,0,0,0,0,5954
6017,0,1,0.463236,22.040001,912.969971,913.138794,2.846895,2.846895,-3.028206,-87.187019,-45.973301,359.91806,12.34376,-7.126674,6.808171,0.319814,-0.013852,-0.002344,1.336993,0,0,0,0,0,6017
6076,0,1,0.62878,22.040001,912.98999,913.138794,-0.437238,2.846895,-3.028206,-87.187019,-45.962772,359.903259,12.34234,-7.125853,6.810277,0.319511,-0.012452,-0.013689,0.083451,0,0,0,0,0,6076
6128,0,1,0.34715,22.040001,913.070007,913.138794,-0.437238,2.846895,-3.028206,-87.187019,-45.964497,0.018017,12.344605,-7.127162,6.807113,0.319303,-0.010928,-0.007992,-1.362206,0,0,0,0,0,6128
6188,0,1,0.436633,22.02,913.02002,913.138794,-0.437238,2.846895,-3.028206,-87.187019,-45.969009,0.003176,12.355227,-7.133293,6.797518,0.319254,-0.016834,-0.017803,0.092338,0,0,0,0,0,6188
6240,0,1,0.25884,22.059999,913.210022,913.138794,-0.437238,2.846895,-3.028206,-87.187019,-45.968182,337.739227,12.357889,-7.13483,6.797344,0.319137,-0.019272,-0.013392,0.926767,0,0,0,0,0,6240
6299,0,1,0.249516,22.049999,913.140015,913.138794,-1.169006,2.846895,-3.028206,-87.187019,-45.958851,359.871704,12.350389,-7.1305,6.800005,0.318953,-0.020994,-0.01896,1.205073,0,0,0,0,0,6299
6353,0,1,0.053762,22.049999,913.200012,913.138794,-1.169006,2.846895,-3.028206,-87.187019,-45.948948,359.873505,12.339087,-7.123975,6.801314,0.318633,-0.017221,0.000842,-0.482719,0,0,0,0,0,6353
6410,0,1,0.038597,22.049999,913.119995,913.138794,-1.169006,2.846895,-3.028206,-87.187019,-45.947632,27.475311,12.3412,-7.125195,6.802341,0.31868,-0.023747,-0.003444,-0.915931,0,0,0,0,0,6410
6464,0,1,0.006232,22.059999,913.070007,913.138794,-1.121726,2.846895,-3.028206,-87.187019,-45.946571,0.004846,12.354416,-7.132825,6.792382,0.318519,-0.016903,-0.010372,-0.164641,0,0,0,0,0,6464
6521,0,1,0.374046,22.049999,913.070007,913.138794,-1.121726,2.846895,-3.028206,-87.187019,-45.945694,359.920288,12.352491,-7.131714,6.793017,0.318705,-0.020514,-0.00878,0.998596,0,0,0,0,0,6521
6579,0,1,0.411826,22.040001,913.070007,913.138794,-1.121726,2.846895,-3.028206,-87.187019,-45.937901,359.883179,12.345967,-7.127948,6.799793,0.318481,-0.016781,-0.01347,1.124652,0,0,0,0,0,6579
6643,0,1,0.275021,22.059999,913.159973,913.138794,-1.121726,2.846895,-3.028206,-87.187019,-45.929405,359.884338,12.341619,-7.125437,6.80489,0.318411,-0.020126,-0.015389,-0.963059,0,0,0,0,0,6643
6703,0,1,-0.021108,22.040001,913.080017,913.138794,0.332449,2.846895,-3.028206,-87.187019,-45.930183,0.272942,12.342619,-7.126014,6.79875,0.318204,-0.013878,-0.016818,-0.857958,0,0,0,0,0,6703
6755,0,1,0.141651,22.059999,913.090027,913.138794,0.332449,2.846895,-3.028206,-87.187019,-45.930832,72.816978,12.357449,-7.134576,6.793999,0.318067,-0.019242,-0.014129,-0.062596,0,0,0,0,0,6755
6814,0,1,0.107147,22.040001,913.090027,913.138794,0.332449,2.846895,-3.028206,-87.187019,-45.928238,359.891846,12.353932,-7.132546,6.795504,0.317808,-0.019681,-0.01915,1.226163,0,0,0,0,0,6814
6866,0,1,0.294909,22.049999,912.969971,913.138794,0.332449,2.846895,-3.028206,-87.187019,-45.923798,359.881409,12.346601,-7.128313,6.797465,0.317686,-0.02046,-0.014347,0.638672,0,0,0,0,0,6866
6925,0,1,0.429383,22.040001,913.090027,913.138794,1.103129,2.846895,-3.028206,-87.187019,-45.919708,359.883789,12.347163,-7.128638,6.800601,0.317571,-0.017782,-0.003358,-0.538847,0,0,0,0,0,6925
6986,0,1,0.250152,22.059999,913.080017,913.138794,1.103129,2.846895,-3.028206,-87.187019,-45.91597,359.899445,12.349633,-7.130064,6.79474,0.317521,-0.023023,-0.002929,-0.464765,0,0,0,0,0,6986
7036,0,1,-0.05207,22.049999,913.190002,913.138794,1.103129,2.846895,-3.028206,-87.187019,-45.911938,359.904053,12.353326,-7.132196,6.79156,0.317187,-0.023876,0.00242,0.430061,0,0,0,0,0,7036
7090,0,1,0.226415,22.07,913.090027,913.138794,-0.3813,2.846895,-3.028206,-87.187019,-45.904617,359.890717,12.351961,-7.131408,6.796978,0.317452,-0.025325,-0.002588,0.944695,0,0,0,0,0,7090
7147,0,1,-0.030572,22.08,913.140015,913.138794,-0.3813,2.846895,-3.028206,-87.187019,-45.896328,359.87619,12.34553,-7.127695,6.797034,0.317767,-0.021248,-0.005394,-0.01449,0,0,0,0,0,7147
7217,0,1,0.103844,22.059999,913.119995,913.138794,-0.3813,2.846895,-3.028206,-87.187019,-45.890526,359.875977,12.34766,-7.128925,6.796505,0.317549,-0.013225,-0.012921,-0.436899,0,0,0,0,0,7217
7269,0,1,0.283576,22.07,913.099976,913.138794,-0.3813,2.846895,-3.028206,-87.187019,-45.889126,359.875824,12.356134,-7.133818,6.794992,0.317385,-0.022957,-0.021178,-0.106871,0,0,0,0,0,7269
7318,0,1,0.488399,22.07,913.119995,913.138794,0.772936,2.846895,-3.028206,-87.187019,-45.88483,359.872559,12.352882,-7.13194,6.794643,0.317213,-0.023954,-0.013837,0.485328,0,0,0,0,0,7318
7369,0,1,0.121721,22.07,913.130005,913.138794,0.772936,2.846895,-3.028206,-87.187019,-45.873508,359.860474,12.351521,-7.131154,6.797805,0.317179,-0.023961,-0.025416,0.666851,0,0,0,0,0,7369
7440,0,1,0.107065,22.059999,913.109985,913.138794,0.772936,2.846895,-3.028206,-87.187019,-45.85965,359.846954,12.349388,-7.129922,6.799682,0.317104,-0.011234,-0.026325,-0.207974,0,0,0,0,0,7440
7482,0,1,-0.007631,22.08,913.159973,913.138794,0.772936,2.846895,-3.028206,-87.187019,-45.85553,359.843445,12.348637,-7.129489,6.796272,0.317283,-0.011624,-0.020409,-0.503319,0,0,0,0,0,7482
7541,0,1,-0.182333,22.059999,913.200012,913.138794,-2.385874,2.846895,-3.028206,-87.187019,-45.851006,359.839783,12.35229,-7.131598,6.794489,0.317246,-0.011645,-0.009813,0.023196,0,0,0,0,0,7541
7595,0,1,-0.122278,22.07,913.219971,913.138794,-2.385874,2.846895,-3.028206,-87.187019,-45.843098,359.833893,12.35138,-7.131073,6.793903,0.317212,-0.011723,-0.010627,0.601615,0,0,0,0,0,7595
7652,0,1,-0.174631,22.07,913.190002,913.138794,-2.385874,2.846895,-3.028206,-87.187019,-45.833054,359.824432,12.345306,-7.127566,6.795279,0.317122,-0.00912,-0.009015,0.402396,0,0,0,0,0,7652
7704,0,1,-0.404125,22.07,913.320007,913.138794,-1.451077,2.846895,-3.028206,-87.187019,-45.82375,359.817383,12.347509,-7.128838,6.798091,0.317089,-0.008146,-0.015942,-0.401151,0,0,0,0,0,7704
7773,0,1,-0.444948,22.07,913.200012,913.138794,-1.451077,2.846895,-3.028206,-87.187019,-45.822304,359.816772,12.352831,-7.13191,6.795283,0.317015,-0.004575,-0.005323,-0.170262,0,0,0,0,0,7773
7833,0,1,-0.279095,22.059999,913.140015,913.138794,-1.451077,2.846895,-3.028206,-87.187019,-45.816196,359.812622,12.353932,-7.132546,6.79358,0.316822,-0.004239,-0.016354,0.482309,0,0,0,0,0,7833
7884,0,1,0.052378,22.040001,913.099976,913.138794,-1.451077,2.846895,-3.028206,-87.187019,-45.803871,359.806458,12.354331,-7.132776,6.798151,0.317182,0.001143,-0.033418,0.54226,0,0,0,0,0,7884
7944,0,1,0.096429,22.059999,913.099976,913.138794,2.406457,2.846895,-3.028206,-87.187019,-45.795029,359.800903,12.350874,-7.13078,6.798437,0.317205,-0.000186,-0.034254,-0.301034,0,0,0,0,0,7944
7995,0,1,-0.144091,22.07,913.25,913.138794,2.406457,2.846895,-3.028206,-87.187019,-45.790005,359.799652,12.352374,-7.131647,6.794145,0.31717,-0.007395,-0.014874,-0.575868,0,0,0,0,0,7995
8066,0,1,0.150643,22.07,913.200012,913.138794,2.406457,2.846895,-3.028206,-87.187019,-45.784924,359.797607,12.358715,-7.135307,6.790971,0.317368,-0.007532,-0.030433,0.505279,0,0,0,0,0,8066
8128,0,1,0.112597,22.09,913.130005,913.138794,0.20089,2.846895,-3.028206,-87.187019,-45.773941,359.787781,12.357342,-7.134515,6.795128,0.317565,-0.007922,-0.032358,0.803391,0,0,0,0,0,8128
8187,0,1,-0.242807,22.07,913.22998,913.138794,0.20089,2.846895,-3.028206,-87.187019,-45.764374,359.777832,12.352286,-7.131596,6.796097,0.317469,-0.003676,-0.023461,-0.053861,0,0,0,0,0,8187
8250,0,1,-0.177368,22.08,913.22998,913.138794,0.20089,2.846895,-3.028206,-87.187019,-45.761185,359.774506,12.355877,-7.133669,6.79288,0.317441,-0.002232,-0.023695,-0.465525,0,0,0,0,0,8250
8329,0,1,0.312154,22.07,913.109985,913.138794,1.061449,2.846895,-3.028206,-87.187019,-45.755909,359.767731,12.357541,-7.13463,6.790707,0.317538,0.000638,-0.020345,0.749473,0,0,0,0,0,8329
8399,0,1,0.806724,22.07,912.97998,913.138794,1.061449,2.846895,-3.028206,-87.187019,-45.745106,359.759918,12.354471,-7.132857,6.794019,0.317763,0.003024,-0.026862,0.710152,0,0,0,0,0,8399
8450,0,1,0.438706,22.07,913,913.138794,1.061449,2.846895,-3.028206,-87.187019,-45.732212,359.751282,12.349,-7.129698,6.79397,0.317623,-0.00608,-0.027293,-0.142433,0,0,0,0,0,8450
8510,0,1,0.406345,22.059999,913,913.138794,1.061449,2.846895,-3.028206,-87.187019,-45.727226,359.744751,12.353047,-7.132035,6.793322,0.317947,-0.008026,-0.037483,-0.278587,0,0,0,0,0,8510
8562,0,1,0.320806,22.09,913.119995,913.138794,0.66898,2.846895,-3.028206,-87.187019,-45.721573,359.738922,12.357588,-7.134657,6.793561,0.317901,-0.008475,-0.029267,0.184081,0,0,0,0,0,8562
8631,0,1,-0.01112,22.059999,913.030029,913.138794,0.66898,2.846895,-3.028206,-87.187019,-45.708969,359.724548,12.355602,-7.13351,6.796026,0.318124,-0.014838,-0.025844,0.473136,0,0,0,0,0,8631
8692,0,1,-0.184641,22.07,913.179993,913.138794,0.66898,2.846895,-3.028206,-87.187019,-45.697514,359.710938,12.35035,-7.130478,6.796015,0.318028,-0.010381,0.005075,-0.126001,0,0,0,0,0,8692
8762,0,1,-0.006497,22.08,912.97998,913.138794,-4.116823,2.846895,-4.116823,-87.187019,-45.687469,359.704865,12.353569,-7.132336,6.795097,0.318088,-0.00642,0.004615,-0.28302,0,0,0,0,0,8762
8822,0,1,-0.44147,22.09,913.179993,913.138794,-4.116823,2.846895,-4.116823,-87.187019,-45.680202,359.70163,12.357301,-7.134491,6.793577,0.31814,-0.002895,-0.013155,0.157586,0,0,0,0,0,8822
8895,0,1,-0.119723,22.09,913.070007,913.138794,-4.116823,2.846895,-4.116823,-87.187019,-45.671608,359.690308,12.353205,-7.132126,6.794872,0.317852,-0.00795,-0.032541,0.478434,0,0,0,0,0,8895
8964,0,1,-0.049792,22.08,913.049988,913.138794,1.143315,2.846895,-4.116823,-87.187019,-45.665535,359.681854,12.350927,-7.130811,6.794126,0.317616,-0.003116,-0.036398,-0.197496,0,0,0,0,0,8964
9018,0,1,0.313422,22.09,913.099976,913.138794,1.143315,2.846895,-4.116823,-87.187019,-45.66124,359.675751,12.354493,-7.13287,6.793078,0.317525,0.001991,-0.040366,-0.215225,0,0,0,0,0,9018
9095,0,1,-0.035662,22.1,913.169983,913.138794,1.143315,2.846895,-4.116823,-87.187019,-45.654938,359.668396,12.357856,-7.134811,6.792153,0.317263,-0.002079,-0.035105,0.4691,0,0,0,0,0,9095
9176,0,1,0.485379,22.07,913.099976,913.138794,1.181581,2.846895,-4.116823,-87.187019,-45.641869,359.654114,12.354356,-7.132791,6.793897,0.317409,-0.004877,-0.035629,0.342383,0,0,0,0,0,9176
9228,0,1,0.231811,22.09,913.119995,913.138794,1.181581,2.846895,-4.116823,-87.187019,-45.633293,359.643738,12.349079,-7.129744,6.792164,0.317374,-0.010545,-0.040128,-0.118826,0,0,0,0,0,9228
9297,0,1,-0.308201,22.09,913.26001,913.138794,1.181581,2.846895,-4.116823,-87.187019,-45.624054,359.632446,12.351681,-7.131246,6.788705,0.317207,-0.007517,-0.027488,0.002805,0,0,0,0,0,9297
9368,0,1,-0.131657,22.1,913.090027,913.138794,-1.459597,2.846895,-4.116823,-87.187019,-45.614796,359.621155,12.352231,-7.131564,6.789372,0.317154,-0.005773,-0.00905,0.411996,0,0,0,0,0,9368
9418,0,1,-0.627169,22.110001,913.299988,913.138794,-1.459597,2.846895,-4.116823,-87.187019,-45.609142,359.614319,12.351366,-7.131064,6.791448,0.317222,-0.004746,-0.015824,0.295193,0,0,0,0,0,9418
9489,0,1,-0.783808,22.09,913.179993,913.138794,-1.459597,2.846895,-4.116823,-87.187019,-45.604214,359.608398,12.348817,-7.129593,6.791472,0.317049,-0.00401,-0.025626,0.043431,0,0,0,0,0,9489
9551,0,1,-0.44491,22.1,913.22998,913.138794,-1.231614,2.846895,-4.116823,-87.187019,-45.598385,359.601562,12.352268,-7.131585,6.789044,0.317005,-0.00331,-0.034656,0.037901,0,0,0,0,0,9551
9610,0,1,-0.274798,22.09,913.130005,913.138794,-1.231614,2.846895,-4.116823,-87.187019,-45.593616,359.597443,12.354192,-7.132696,6.789681,0.316701,-0.001955,-0.035073,0.245909,0,0,0,0,0,9610
9661,0,1,-0.213514,22.1,913.210022,913.138794,-1.231614,2.846895,-4.116823,-87.187019,-45.584229,359.593903,12.350718,-7.13069,6.78919,0.316685,0.001266,-0.036888,0.226821,0,0,0,0,0,9661
9731,0,1,0.22823,22.08,913.049988,913.138794,-1.231614,2.846895,-4.116823,-87.187019,-45.573681,359.590302,12.349439,-7.129952,6.789381,0.316453,-0.000618,-0.03084,0.026775,0,0,0,0,0,9731
9799,0,1,0.029972,22.1,913.119995,913.138794,3.061536,3.061536,-4.116823,-87.187019,-45.564186,359.58728,12.353398,-7.132238,6.789532,0.316317,0.000869,-0.022217,-0.003915,0,0,0,0,0,9799
9863,0,1,-0.098974,22.1,913.210022,913.138794,3.061536,3.061536,-4.116823,-87.187019,-45.557163,359.585114,12.354314,-7.132766,6.789992,0.316403,-0.010688,-0.010194,0.108567,0,0,0,0,0,9863
9923,0,1,0.521832,22.08,913.070007,913.138794,3.061536,3.061536,-4.116823,-87.187019,-45.549801,359.582886,12.351954,-7.131404,6.790136,0.316365,-0.010725,-0.022703,0.215185,0,0,0,0,0,9923
9999,0,1,0.122203,22.110001,913.150024,913.138794,1.175373,3.061536,-4.116823,-87.187019,-45.542572,359.580658,12.349767,-7.130141,6.789671,0.316207,-0.005133,-0.022468,0.031304,0,0,0,0,0,9999
10055,0,1,-0.086196,22.110001,913.27002,913.138794,1.175373,3.061536,-4.116823,-87.187019,-45.5382,359.579315,12.351221,-7.130981,6.788599,0.315929,-0.003295,-0.005886,-0.015602,0,0,0,0,0,10055
10125,0,1,-0.303957,22.120001,913.25,913.138794,1.175373,3.061536,-4.116823,-87.187019,-45.533703,359.577881,12.351557,-7.131175,6.789398,0.31595,-0.008429,-0.01234,0.100277,0,0,0,0,0,10125
10189,0,1,0.025553,22.09,913.070007,913.138794,-4.003049,3.061536,-4.116823,-87.187019,-45.5299,359.57663,12.345364,-7.127599,6.788571,0.315834,-0.010044,-0.035828,0.036129,0,0,0,0,0,10189
10246,0,1,0.136304,22.1,913.080017,913.138794,-4.003049,3.061536,-4.116823,-87.187019,-45.531754,359.575714,12.352167,-7.131527,6.78615,0.315928,-0.00772,-0.031538,-0.185527,0,0,0,0,0,10246
10300,0,1,-0.215523,22.1,913.190002,913.138794,-4.003049,3.061536,-4.116823,-87.187019,-45.533337,359.57489,12.351753,-7.131288,6.781969,0.315705,-0.004533,-0.044504,0.065185,0,0,0,0,0,10300
10367,0,1,-0.060989,22.09,913.150024,913.138794,1.695754,3.061536,-4.116823,-87.187218,-45.526623,359.567535,12.354061,-7.13262,6.786213,0.315821,-0.014824,-0.043343,0.988574,0,0,0,0,0,10367
10437,0,1,0.226365,22.110001,913,913.138794,1.695754,3.061536,-4.116823,-87.187874,-45.51186,359.552856,12.349895,-7.130216,6.790142,0.315854,-0.010653,-0.042754,1.141339,0,0,0,0,0,10437
10489,0,1,0.042678,22.129999,913.150024,913.138794,1.695754,3.061536,-4.116823,-87.188484,-45.497013,359.536011,12.338163,-7.123442,6.788903,0.315579,-0.005817,-0.034104,0.713087,0,0,0,0,0,10489
10559,0,1,0.01812,22.110001,913.109985,913.138794,0.357954,3.061536,-4.116823,-87.189285,-45.479538,359.514038,12.337394,-7.122998,6.793857,0.31547,-0.007297,-0.011992,-0.185379,0,0,0,0,0,10559
10623,0,1,-0.123974,22.120001,913.140015,913.138794,0.357954,3.061536,-4.116823,-87.190178,-45.47023,359.499329,12.339563,-7.12425,6.796488,0.315503,-0.014097,-0.037752,-0.809968,0,0,0,0,0,10623
10690,0,1,-0.333077,22.110001,913.23999,913.138794,0.357954,3.061536,-4.116823,-87.190308,-45.470856,359.497864,12.340911,-7.125028,6.793708,0.315423,-0.017745,-0.012839,-0.727243,0,0,0,0,0,10690
10748,0,1,0.079488,22.1,913.22998,913.138794,0.357954,3.061536,-4.116823,-87.190598,-45.471893,359.496765,12.341386,-7.125302,6.791767,0.315231,-0.019337,-0.002221,0.350258,0,0,0,0,0,10748
10811,0,1,-0.360124,22.139999,913.26001,913.138794,1.395067,3.061536,-4.116823,-87.191628,-45.462086,359.485138,12.343759,-7.126672,6.793722,0.315404,-0.015979,0.011934,1.065224,0,0,0,0,0,10811
10871,0,1,0.075513,22.1,913.109985,913.138794,1.395067,3.061536,-4.116823,-87.192566,-45.446255,359.467773,12.341703,-7.125486,6.796121,0.315373,-0.01687,-0.001498,1.255813,0,0,0,0,0,10871
10922,0,1,-0.128415,22.120001,913.200012,913.138794,1.395067,3.061536,-4.116823,-87.193573,-45.420166,359.437683,12.334372,-7.121253,6.795674,0.315121,-0.015244,-0.00565,1.074314,0,0,0,0,0,10922
11003,0,1,0.264222,22.120001,913.049988,913.138794,0.133096,3.061536,-4.116823,-87.195107,-45.383858,359.395203,12.327662,-7.117379,6.802393,0.315139,-0.006107,-0.014143,0.453487,0,0,0,0,0,11003
11055,0,1,0.063505,22.1,913.25,913.138794,0.133096,3.061536,-4.116823,-87.196281,-45.36087,359.368439,12.329111,-7.118216,6.807665,0.315246,-0.008071,-0.022266,-0.412406,0,0,0,0,0,11055
11124,0,1,0.039292,22.110001,913.150024,913.138794,0.133096,3.061536,-4.116823,-87.197784,-45.35355,359.363373,12.3301,-7.118787,6.810223,0.315371,-0.014575,-0.017402,-1.057245,0,0,0,0,0,11124
11182,0,1,0.001845,22.120001,913.159973,913.138794,-1.531294,3.061536,-4.116823,-87.199104,-45.358677,359.369049,12.324546,-7.11558,6.806332,0.315474,-0.006914,-0.013099,-1.019779,0,0,0,0,0,11182
11256,0,1,0.302013,22.129999,913.130005,913.138794,-1.531294,3.061536,-4.116823,-87.200684,-45.373905,359.388275,12.325914,-7.11637,6.804733,0.315654,-0.000718,-0.012356,-0.9211,0,0,0,0,0,11256
11315,0,1,0.20475,22.139999,913.159973,913.138794,-1.531294,3.061536,-4.116823,-87.200302,-45.382679,359.405151,12.334213,-7.121161,6.80433,0.315749,0.002119,-0.008226,-0.564983,0,0,0,0,0,11315
11377,0,1,-0.532675,22.129999,913.280029,913.138794,-1.531294,3.061536,-4.116823,-87.199875,-45.391262,359.422272,12.33705,-7.122799,6.802726,0.315774,-0.007469,-0.007094,-0.137391,0,0,0,0,0,11377
11447,0,1,0.407751,22.120001,913.109985,913.138794,-0.504973,3.061536,-4.116823,-87.20089,-45.398117,359.428467,12.333064,-7.120498,6.80075,0.315753,-0.008151,0.008409,0.343385,0,0,0,0,0,11447
11501,0,1,0.25506,22.129999,913.169983,913.138794,-0.504973,3.061536,-4.116823,-87.20237,-45.402779,359.429657,12.333996,-7.121036,6.802979,0.315888,-0.015904,0.018712,0.182323,0,0,0,0,0,11501
11568,0,1,0.257849,22.129999,913.090027,913.138794,-0.504973,3.061536,-4.116823,-87.204201,-45.407379,359.430725,12.337531,-7.123077,6.804628,0.316214,-0.022222,0.017644,-0.085691,0,0,0,0,0,11568
11638,0,1,-0.138857,22.129999,913.130005,913.138794,1.779283,3.061536,-4.116823,-87.204353,-45.416611,359.438202,12.333496,-7.120747,6.802632,0.316444,-0.031089,0.003218,-0.706778,0,0,0,0,0,11638
11689,0,1,0.149031,22.129999,913.150024,913.138794,1.779283,3.061536,-4.116823,-87.203781,-45.425838,359.444763,12.3371,-7.122828,6.79615,0.316565,-0.022709,-0.003439,-0.13882,0,0,0,0,0,11689
11749,0,1,0.600099,22.120001,913.080017,913.138794,1.779283,3.061536,-4.116823,-87.203232,-45.434216,359.450562,12.343852,-7.126726,6.797093,0.316683,-0.026037,0.006314,0.13475,0,0,0,0,0,11749
11811,0,1,0.137446,22.15,913.309998,913.138794,2.606256,3.061536,-4.116823,-87.202591,-45.443066,359.456696,12.337128,-7.122844,6.800658,0.316509,-0.023678,0.002562,0.373717,0,0,0,0,0,11811
11891,0,1,0.418512,22.139999,913.080017,913.138794,2.606256,3.061536,-4.116823,-87.201897,-45.456196,359.468018,12.336815,-7.122663,6.800341,0.316529,-0.032905,0.017391,-0.46085,0,0,0,0,0,11891
11949,0,1,0.411137,22.139999,913.109985,913.138794,2.606256,3.061536,-4.116823,-87.201424,-45.468914,359.478302,12.336882,-7.122702,6.795504,0.316253,-0.027514,0.008681,0.071955,0,0,0,0,0,11949
12002,0,1,0.331542,22.15,913.080017,913.138794,-2.490901,3.061536,-4.116823,-87.200966,-45.475727,359.487823,12.340155,-7.124591,6.796529,0.316512,-0.030253,0.00408,0.290548,0,0,0,0,0,12002
12073,0,1,0.129629,22.120001,913.130005,913.138794,-2.490901,3.061536,-4.116823,-87.200439,-45.479038,359.498047,12.336721,-7.12261,6.797198,0.316561,-0.02891,0.004965,0.262588,0,0,0,0,0,12073
12135,0,1,0.117827,22.15,913.22998,913.138794,-2.490901,3.061536,-4.116823,-87.199936,-45.481663,359.506866,12.333626,-7.120822,6.793621,0.316474,-0.02356,0.010931,0.128946,0,0,0,0,0,12135
12204,0,1,-0.105188,22.16,913.27002,913.138794,-0.789438,3.061536,-4.116823,-87.199547,-45.48991,359.513184,12.334239,-7.121176,6.793891,0.316236,-0.026679,0.028133,0.014517,0,0,0,0,0,12204
12272,0,1,-0.177613,22.15,913.179993,913.138794,-0.789438,3.061536,-4.116823,-87.199013,-45.500355,359.52066,12.343793,-7.126692,6.794538,0.316357,-0.027833,0.018555,0.208936,0,0,0,0,0,12272
12325,0,1,0.159077,22.16,913.049988,913.138794,-0.789438,3.061536,-4.116823,-87.198662,-45.500317,359.521088,12.341866,-7.125579,6.793717,0.316261,-0.037167,-0.004323,0.505632,0,0,0,0,0,12325
12376,0,1,0.027222,22.139999,913.150024,913.138794,-0.789438,3.061536,-4.116823,-87.199493,-45.496746,359.517731,12.334833,-7.121519,6.792415,0.316303,-0.042843,-0.003818,1.340001,0,0,0,0,0,12376
12446,0,1,0.1759,22.139999,913.179993,913.138794,-0.29424,3.061536,-4.116823,-87.201485,-45.474094,359.490845,12.305107,-7.104357,6.80705,0.31636,-0.028149,-0.009274,3.222747,0,0,0,0,0,12446
12508,0,1,-0.26824,22.17,913.210022,913.138794,-0.29424,3.061536,-4.116823,-87.203529,-45.432819,359.443085,12.283982,-7.09216,6.832627,0.315792,-0.030379,-0.03617,-4.403207,0,0,0,0,0,12508
12568,0,1,-0.049681,22.16,913.140015,913.138794,-0.29424,3.061536,-4.116823,-87.2043,-45.481613,359.496796,12.246059,-7.070266,6.839038,0.316378,-0.032775,0.042289,-12.168355,0,0,0,0,0,12568
12639,0,1,0.179741,22.16,913.140015,913.138794,0.839232,3.061536,-4.116823,-87.203552,-45.736622,0.256657,12.485536,-7.208528,6.675719,0.31611,-0.021307,0.061554,1.685678,0,0,0,0,0,12639
12710,0,1,0.114381,22.16,913.200012,913.138794,0.839232,3.061536,-4.116823,-87.204712,-45.742596,359.388824,12.514892,-7.225476,6.752778,0.316179,-0.035886,-0.03276,15.192817,0,0,0,0,0,12710
12770,0,1,0.460526,22.129999,913.039978,913.138794,0.839232,3.061536,-4.116823,-87.206467,-45.345871,358.964844,12.383578,-7.149662,6.81558,0.31618,-0.0282,-0.081127,11.677448,0,0,0,0,0,12770
12829,0,1,0.181675,22.129999,913.059998,913.138794,-0.739358,3.061536,-4.116823,-87.210976,-44.818878,358.665802,12.225665,-7.058491,6.903569,0.316063,-0.027229,-0.069912,2.985662,0,0,0,0,0,12829
12909,0,1,-0.25009,22.15,913.130005,913.138794,-0.739358,3.061536,-4.116823,-87.218018,-44.600838,358.560181,12.133219,-7.005117,6.97916,0.316169,-0.023982,-0.037238,-3.476511,0,0,0,0,0,12909
12951,0,1,0.239345,22.15,913.070007,913.138794,-0.739358,3.061536,-4.116823,-87.219437,-44.661392,358.627594,12.077639,-6.973028,6.980142,0.315891,-0.03197,-0.03344,-6.727857,0,0,0,0,0,12951
13003,0,1,0.261937,22.16,913.219971,913.138794,-0.739358,3.061536,-4.116823,-87.221123,-44.856014,358.830872,12.119318,-6.997092,6.951238,0.316323,-0.04037,-0.010665,-9.128079,0,0,0,0,0,13003
13072,0,1,-0.045716,22.16,913.070007,913.138794,-0.402188,3.061536,-4.116823,-87.223022,-45.36768,359.349091,12.229007,-7.060421,6.905413,0.316584,-0.038822,0.001944,-7.600601,0,0,0,0,0,13072
13143,0,1,-0.037219,22.16,913.26001,913.138794,-0.402188,3.061536,-4.116823,-87.22345,-45.726391,359.837311,12.383762,-7.149768,6.775796,0.316402,-0.041585,-0.017903,4.158135,0,0,0,0,0,13143
13195,0,1,0.181872,22.17,913.109985,913.138794,-0.402188,3.061536,-4.116823,-87.224907,-45.70813,359.716919,12.371057,-7.142433,6.785515,0.316389,-0.066931,-0.031873,6.745491,0,0,0,0,0,13195
13284,0,1,-0.745597,22.190001,913.330017,913.138794,0.707564,3.061536,-4.116823,-87.227043,-45.443649,359.381836,12.277,-7.08813,6.827507,0.316491,-0.048618,-0.024911,2.794108,0,0,0,0,0,13284
13355,0,1,-0.181177,22.17,913.159973,913.138794,0.707564,3.061536,-4.116823,-87.228737,-45.309166,359.273895,12.216731,-7.053333,6.859927,0.316639,-0.033658,-0.022076,-3.250696,0,0,0,0,0,13355
13406,0,1,-0.25059,22.190001,913.26001,913.138794,0.707564,3.061536,-4.116823,-87.229851,-45.356174,359.328583,12.230398,-7.061224,6.872214,0.316618,-0.051229,0.015973,-7.081665,0,0,0,0,0,13406
13466,0,1,-0.362305,22.18,913.190002,913.138794,-0.451492,3.061536,-4.116823,-87.230446,-45.60965,24.035461,12.364182,-7.138464,6.794388,0.314752,-0.504141,0.78019,-9.768266,0,0,0,0,0,13466
13534,0,1,0.014671,22.18,913.02002,913.138794,-0.451492,3.061536,-4.116823,-87.231636,-45.941677,0.090863,12.547668,-7.2444,6.700269,0.312911,-0.256286,0.550591,3.467021,0,0,0,0,0,13534
13587,0,1,0.153622,22.190001,913.119995,913.138794,-0.451492,3.061536,-4.116823,-87.235168,-45.97094,359.808563,12.492649,-7.212634,6.745778,0.311879,-0.316776,0.196473,4.478973,0,0,0,0,0,13587
13632,0,1,0.045709,22.17,913.109985,913.138794,-0.020836,3.061536,-4.116823,-87.238617,-45.944244,359.749146,12.415105,-7.167864,6.808731,0.312071,-0.300703,0.034824,2.185777,0,0,0,0,0,13632
13698,0,1,-0.489873,22.209999,913.219971,913.138794,-0.020836,3.061536,-4.116823,-87.243874,-45.95298,359.794312,12.391757,-7.154384,6.798988,0.31148,-0.123292,0.07785,-4.599856,0,0,0,0,0,13698
13767,0,1,-0.136871,22.16,913.039978,913.138794,-0.020836,3.061536,-4.116823,-87.244316,-46.028461,0.089745,12.448498,-7.187144,6.725166,0.311565,-0.072877,0.067582,0.39946,0,0,0,0,0,13767
13820,0,1,0.477899,22.17,913,913.138794,-0.020836,3.061536,-4.116823,-87.24688,-46.063896,0.056202,12.466984,-7.197816,6.728933,0.311097,-0.055721,0.041695,3.003399,0,0,0,0,0,13820
13880,0,1,0.098934,22.190001,913.150024,913.138794,1.94524,3.061536,-4.116823,-87.251709,-46.049301,359.827759,12.423498,-7.17271,6.766567,0.310972,-0.08605,-0.035091,2.838064,0,0,0,0,0,13880
13945,0,1,0.297296,22.18,913.01001,913.138794,1.94524,3.061536,-4.116823,-87.256432,-46.024788,359.817566,12.377341,-7.146061,6.744212,0.309349,-0.07666,-0.042982,-0.259785,0,0,0,0,0,13945
14011,0,1,0.035928,22.200001,913.130005,913.138794,1.94524,3.061536,-4.116823,-87.260086,-46.01944,359.832733,12.459336,-7.193401,6.75143,0.307644,-0.129511,-0.238048,-0.573148,0,0,0,0,0,14011
14063,0,1,-0.080414,22.18,913.210022,913.138794,-1.544759,3.061536,-4.116823,-87.261963,-46.016365,359.844208,12.541289,-7.240717,6.739795,0.307069,-0.074328,-0.194824,0.246856,0,0,0,0,0,14063
14133,0,1,0.172558,22.200001,913.169983,913.138794,-1.544759,3.061536,-4.116823,-87.265434,-46.00676,359.839844,12.449132,-7.18751,6.731993,0.306244,-0.027656,-0.130366,1.46687,0,0,0,0,0,14133
14203,0,1,-0.096025,22.18,913.140015,913.138794,-1.544759,3.061536,-4.116823,-87.269974,-45.967731,359.800385,12.453639,-7.190112,6.781409,0.306401,-0.016067,-0.122514,1.697355,0,0,0,0,0,14203
14263,0,1,-0.050198,22.190001,913.099976,913.138794,-1.288674,3.061536,-4.116823,-87.27298,-45.927967,359.763275,12.413196,-7.166762,6.802999,0.306909,-0.014162,-0.091083,0.197291,0,0,0,0,0,14263
14324,0,1,0.077583,22.190001,913.090027,913.138794,-1.288674,3.061536,-4.116823,-87.276299,-45.904034,359.74762,12.362773,-7.13765,6.79889,0.306594,-0.008421,-0.066343,-1.442612,0,0,0,0,0,14324
14385,0,1,0.193875,22.209999,913.150024,913.138794,-1.288674,3.061536,-4.116823,-87.279343,-45.91806,359.768768,12.368187,-7.140776,6.782139,0.306905,-0.024988,-0.079076,-2.386982,0,0,0,0,0,14385
14435,0,1,0.03827,22.219999,913.159973,913.138794,-1.288674,3.061536,-4.116823,-87.281639,-45.943974,359.80069,12.407818,-7.163657,6.763096,0.307265,-0.056798,-0.091904,0.207265,0,0,0,0,0,14435
14486,0,1,0.199279,22.209999,913.099976,913.138794,0.90492,3.061536,-4.116823,-87.283768,-45.963253,359.822327,12.411973,-7.166056,6.7505,0.307205,-0.058353,-0.078956,1.363187,0,0,0,0,0,14486
14555,0,1,0.538272,22.190001,912.98999,913.138794,0.90492,3.061536,-4.116823,-87.286079,-45.957855,359.820038,12.405602,-7.162377,6.760572,0.307646,-0.066741,-0.062099,2.112504,0,0,0,0,0,14555
14627,0,1,0.21326,22.209999,913.049988,913.138794,0.90492,3.061536,-4.116823,-87.288483,-45.912781,359.777069,12.392231,-7.154658,6.766894,0.307522,-0.065591,-0.058736,2.397342,0,0,0,0,0,14627
14678,0,1,-0.035069,22.200001,913.26001,913.138794,1.531884,3.061536,-4.116823,-87.290024,-45.858463,359.722015,12.370443,-7.142079,6.779964,0.307729,-0.064978,-0.035478,2.420654,0,0,0,0,0,14678
14738,0,1,-0.028234,22.219999,913.150024,913.138794,1.531884,3.061536,-4.116823,-87.291702,-45.760769,359.627686,12.351275,-7.131012,6.787852,0.307584,-0.047051,-0.048333,1.976869,0,0,0,0,0,14738
14809,0,1,-0.43059,22.23,913.190002,913.138794,1.531884,3.061536,-4.116823,-87.293213,-45.671597,359.542236,12.329249,-7.118296,6.804977,0.308136,-0.036052,-0.055291,0.642763,0,0,0,0,0,14809
14860,0,1,-0.355148,22.219999,913.109985,913.138794,-3.548755,3.061536,-4.116823,-87.294571,-45.621494,359.494263,12.32303,-7.114705,6.807724,0.308406,-0.025979,-0.061777,-0.67422,0,0,0,0,0,14860
14910,0,1,-0.324245,22.219999,913.119995,913.138794,-3.548755,3.061536,-4.116823,-87.295601,-45.613163,359.480225,12.320636,-7.113322,6.80709,0.308468,-0.010908,-0.059878,-0.778475,0,0,0,0,0,14910
14981,0,1,-0.375114,22.25,913.25,913.138794,-3.548755,3.061536,-4.116823,-87.296906,-45.60902,359.475708,12.32831,-7.117753,6.807312,0.309143,-0.011734,-0.049554,1.013411,0,0,0,0,0,14981
15041,0,1,-0.180343,22.24,913.059998,913.138794,-3.548755,3.061536,-4.116823,-87.297905,-45.583511,359.451843,12.324497,-7.115552,6.809006,0.309349,-0.018708,-0.046176,2.185228,0,0,0,0,0,15041
15092,0,1,-0.226563,22.26,913.200012,913.138794,1.265949,3.061536,-4.116823,-87.298668,-45.54063,359.40509,12.31581,-7.110536,6.812992,0.309698,-0.012667,-0.040946,3.043681,0,0,0,0,0,15092
15152,0,1,-0.386263,22.25,913.190002,913.138794,1.265949,3.061536,-4.116823,-87.299507,-45.432613,359.295349,12.307227,-7.105581,6.824656,0.309951,-0.020225,-0.035359,3.536544,0,0,0,0,0,15152
15223,0,1,-0.286084,22.25,913.099976,913.138794,1.265949,3.061536,-4.116823,-87.301636,-45.195194,359.063629,12.28591,-7.093273,6.837575,0.310645,-0.01319,-0.066856,3.996577,0,0,0,0,0,15223
15274,0,1,-0.534486,22.25,913.210022,913.138794,-2.045039,3.061536,-4.116823,-87.30545,-44.978565,358.845459,12.260112,-7.078379,6.85655,0.310468,-0.024403,-0.037524,3.513998,0,0,0,0,0,15274
15354,0,1,-0.257447,22.24,913.090027,913.138794,-2.045039,3.061536,-4.116823,-87.31089,-44.758308,358.624146,12.218966,-7.054624,6.891232,0.310963,-0.016215,-0.039923,0.01601,0,0,0,0,0,15354
15424,0,1,-0.151737,22.25,913.219971,913.138794,-2.045039,3.061536,-4.116823,-87.315552,-44.710724,358.580322,12.204874,-7.046487,6.904922,0.311139,-0.010373,-0.045037,-1.331911,0,0,0,0,0,15424
15477,0,1,-0.246686,22.219999,913.099976,913.138794,0.831967,3.061536,-4.116823,-87.319374,-44.704155,358.575348,12.196992,-7.041936,6.905646,0.310954,-0.01056,-0.040185,-0.129526,0,0,0,0,0,15477
15526,0,1,-0.062501,22.219999,913.119995,913.138794,0.831967,3.061536,-4.116823,-87.322342,-44.701004,358.563934,12.190853,-7.038392,6.911392,0.310709,-0.007893,-0.038854,0.527264,0,0,0,0,0,15526
15590,0,1,-0.219617,22.219999,913.109985,913.138794,0.831967,3.061536,-4.116823,-87.326622,-44.697956,358.548492,12.175851,-7.029731,6.924665,0.31089,-0.015774,-0.03411,0.181048,0,0,0,0,0,15590
15667,0,1,-0.291789,22.23,913.27002,913.138794,0.247764,3.061536,-4.116823,-87.331268,-44.695732,358.547699,12.16777,-7.025065,6.93006,0.311057,-0.01504,-0.037206,-0.547877,0,0,0,0,0,15667
15727,0,1,0.340835,22.24,913.059998,913.138794,0.247764,3.061536,-4.116823,-87.334358,-44.694626,358.549957,12.165791,-7.023922,6.933102,0.310949,-0.021224,-0.025592,-0.360441,0,0,0,0,0,15727
15790,0,1,-0.047827,22.24,913.27002,913.138794,0.247764,3.061536,-4.116823,-87.337791,-44.693623,358.55191,12.165337,-7.02366,6.935393,0.311045,-0.027537,-0.013767,0.22796,0,0,0,0,0,15790
15859,0,1,-0.184952,22.24,913.130005,913.138794,0.247764,3.061536,-4.116823,-87.340927,-44.691555,358.548981,12.163265,-7.022464,6.94142,0.311266,-0.021357,-0.029833,0.673014,0,0,0,0,0,15859
15917,0,1,0.151943,22.23,913.059998,913.138794,0.68889,3.061536,-4.116823,-87.343323,-44.683498,358.540558,12.156157,-7.018361,6.942942,0.311154,-0.030054,-0.026824,0.961956,0,0,0,0,0,15917
15981,0,1,-0.283807,22.24,913.179993,913.138794,0.68889,3.061536,-4.116823,-87.345924,-44.663284,358.519562,12.148984,-7.014219,6.946066,0.311044,-0.032873,-0.012649,1.2889,0,0,0,0,0,15981
16061,0,1,-0.118336,22.25,913.26001,913.138794,0.68889,3.061536,-4.116823,-87.348648,-44.61142,358.46698,12.126989,-7.001521,6.958778,0.31106,-0.027268,-0.030729,1.342539,0,0,0,0,0,16061
16105,0,1,-0.318508,22.25,913.27002,913.138794,1.157376,3.061536,-4.116823,-87.35006,-44.578312,358.436096,12.114954,-6.994572,6.968715,0.311348,-0.024317,-0.02028,-1.047084,0,0,0,0,0,16105
16172,0,1,-0.251933,22.219999,913.169983,913.138794,1.157376,3.061536,-4.116823,-87.35199,-44.579887,358.441467,12.104486,-6.988528,6.972416,0.311485,-0.002622,-0.021536,-4.345105,0,0,0,0,0,16172
16243,0,1,-0.013841,22.25,913.150024,913.138794,1.157376,3.061536,-4.116823,-87.353729,-44.638988,358.501862,12.132367,-7.004625,6.959283,0.311745,-0.009348,-0.005127,-1.469219,0,0,0,0,0,16243
16294,0,1,-0.407375,22.24,913.27002,913.138794,-0.92825,3.061536,-4.116823,-87.355042,-44.665752,358.531799,12.14648,-7.012773,6.941216,0.311443,-0.011577,-0.020056,4.087811,0,0,0,0,0,16294
16344,0,1,0.111351,22.25,913.070007,913.138794,-0.92825,3.061536,-4.116823,-87.356247,-44.6301,358.497467,12.141167,-7.009706,6.949207,0.311459,-0.021753,-0.016857,6.082283,0,0,0,0,0,16344
16406,0,1,-0.737692,22.280001,913.27002,913.138794,-0.92825,3.061536,-4.116823,-87.357552,-44.499153,358.364655,12.095092,-6.983105,6.98225,0.311404,-0.018972,-0.02597,4.16824,0,0,0,0,0,16406
16475,0,1,-0.00466,22.25,913.140015,913.138794,0.503416,3.061536,-4.116823,-87.358734,-44.377232,358.241425,12.049035,-6.956513,7.000455,0.311415,-0.020627,-0.015484,-3.932637,0,0,0,0,0,16475
16533,0,1,-0.3313,22.25,913.119995,913.138794,0.503416,3.061536,-4.116823,-87.359634,-44.392258,358.251953,12.083333,-6.976315,6.996113,0.311678,-0.017658,-0.01475,-4.381395,0,0,0,0,0,16533
16587,0,1,-0.18449,22.25,913.25,913.138794,0.503416,3.061536,-4.116823,-87.360458,-44.450504,358.302399,12.107902,-6.9905,6.978256,0.31187,-0.025474,-0.014494,-1.280458,0,0,0,0,0,16587
16667,0,1,-0.468703,22.24,913.179993,913.138794,0.503416,3.061536,-4.116823,-87.361511,-44.454155,358.310425,12.104627,-6.988609,6.978471,0.311968,-0.043939,-0.017185,3.679224,0,0,0,0,0,16667
16725,0,1,-0.248611,22.26,913.179993,913.138794,-1.048078,3.061536,-4.116823,-87.36219,-44.412357,358.267639,12.087378,-6.978651,6.993431,0.312145,-0.048165,-0.018282,2.572268,0,0,0,0,0,16725
16778,0,1,-0.378606,22.25,913.150024,913.138794,-1.048078,3.061536,-4.116823,-87.362823,-44.360786,358.218048,12.065125,-6.965804,7.007681,0.311963,-0.060607,-0.028588,-0.120647,0,0,0,0,0,16778
16859,0,1,-0.326163,22.27,913.289978,913.138794,-1.048078,3.061536,-4.116823,-87.363525,-44.345146,358.207367,12.053607,-6.959153,7.012285,0.311952,-0.067868,-0.021282,-2.864066,0,0,0,0,0,16859
16913,0,1,0.017135,22.25,913.179993,913.138794,-0.493137,3.061536,-4.116823,-87.364159,-44.393639,358.255981,12.061366,-6.963633,6.999562,0.312173,-0.062132,-0.021606,-3.342079,0,0,0,0,0,16913
16970,0,1,-0.479623,22.27,913.130005,913.138794,-0.493137,3.061536,-4.116823,-87.364647,-44.466431,358.328705,12.097596,-6.98455,6.982807,0.312224,-0.067088,-0.021845,-1.35323,0,0,0,0,0,16970
17039,0,1,-0.191188,22.27,913.219971,913.138794,-0.493137,3.061536,-4.116823,-87.365189,-44.490456,358.35672,12.112627,-6.993228,6.970038,0.312206,-0.071303,-0.027117,4.99811,0,0,0,0,0,17039
17119,0,1,-0.342895,22.27,913.23999,913.138794,-0.409564,3.061536,-4.116823,-87.365768,-44.387135,358.249329,12.07459,-6.971268,6.99221,0.312127,-0.060275,-0.029835,3.815851,0,0,0,0,0,17119
17162,0,1,-0.246062,22.27,913.109985,913.138794,-0.409564,3.061536,-4.116823,-87.366074,-44.304005,358.16925,12.03625,-6.949132,7.009397,0.311967,-0.052156,-0.022428,-0.587458,0,0,0,0,0,17162
17226,0,1,0.119125,22.27,913.190002,913.138794,-0.409564,3.061536,-4.116823,-87.366501,-44.267574,358.132568,12.049166,-6.956589,7.011634,0.31229,-0.04425,-0.024596,-3.434629,0,0,0,0,0,17226
17297,0,1,-0.310429,22.27,913.27002,913.138794,1.441783,3.061536,-4.116823,-87.366905,-44.296543,358.160706,12.083521,-6.976424,6.994549,0.312162,-0.042392,-0.027554,0.151903,0,0,0,0,0,17297
17375,0,1,-0.284016,22.280001,913.200012,913.138794,1.441783,3.061536,-4.116823,-87.367332,-44.259995,358.122864,12.060723,-6.963262,6.996502,0.312291,-0.041971,-0.014648,3.623116,0,0,0,0,0,17375
17435,0,1,-0.636931,22.280001,913.210022,913.138794,1.441783,3.061536,-4.116823,-87.367615,-44.201351,358.064941,12.025208,-6.942757,7.021484,0.312224,-0.036252,-0.014153,0.492137,0,0,0,0,0,17435
17500,0,1,-0.372499,22.280001,913.099976,913.138794,-1.943868,3.061536,-4.116823,-87.367935,-44.174393,358.038666,12.034797,-6.948293,7.038468,0.31311,-0.041775,-0.013369,-2.833941,0,0,0,0,0,17500
17556,0,1,-0.339782,22.27,913.130005,913.138794,-1.943868,3.061536,-4.116823,-87.368187,-44.211033,358.071594,12.036547,-6.949304,7.028198,0.313137,-0.035088,-0.015827,-3.806728,0,0,0,0,0,17556
17630,0,1,-0.281793,22.299999,913.119995,913.138794,-1.943868,3.061536,-4.116823,-87.368507,-44.327198,358.191681,12.056075,-6.960578,7.004388,0.313294,-0.030404,-0.017774,-3.009133,0,0,0,0,0,17630
17701,0,1,-0.299,22.27,913.130005,913.138794,0.52619,3.061536,-4.116823,-87.368774,-44.461082,358.322144,12.068169,-6.96756,6.988318,0.313291,-0.014803,-0.01843,-0.715341,0,0,0,0,0,17701
17760,0,1,-0.491697,22.27,913.190002,913.138794,0.52619,3.061536,-4.116823,-87.368965,-44.53714,358.403351,12.093501,-6.982186,6.995115,0.313595,-0.00931,-0.028221,-0.555912,0,0,0,0,0,17760
17819,0,1,-0.381261,22.280001,913.210022,913.138794,0.52619,3.061536,-4.116823,-87.369156,-44.601212,358.471283,12.09655,-6.983946,6.983617,0.313493,-0.016185,-0.008676,-1.120882,0,0,0,0,0,17819
17899,0,1,0.198473,22.27,913.090027,913.138794,2.815659,3.061536,-4.116823,-87.368637,-44.698097,358.563568,12.096676,-6.984019,6.975119,0.313631,-0.003951,-0.014356,-1.537609,0,0,0,0,0,17899
17961,0,1,-0.73471,22.309999,913.25,913.138794,2.815659,3.061536,-4.116823,-87.366432,-44.824677,358.689301,12.104679,-6.98864,6.970736,0.313719,0.011248,0.015391,-4.438164,0,0,0,0,0,17961
18011,0,1,-0.357366,22.299999,913.210022,913.138794,2.815659,3.061536,-4.116823,-87.364532,-45.012676,358.881378,12.131001,-7.003836,6.963318,0.314318,0.007872,0.030034,-6.247802,0,0,0,0,0,18011
18072,0,1,-0.068943,22.299999,913.150024,913.138794,2.815659,3.061536,-4.116823,-87.36219,-45.379242,359.241516,12.157121,-7.018917,6.919017,0.313928,0.021501,0.07899,-5.923625,0,0,0,0,0,18072
18132,0,1,-0.141951,22.309999,913.22998,913.138794,-1.157251,3.061536,-4.116823,-87.35981,-45.720802,359.584473,12.201494,-7.044536,6.898838,0.313965,0.014836,0.085672,-3.655411,0,0,0,0,0,18132
18192,0,1,0.004651,22.309999,913.159973,913.138794,-1.157251,3.061536,-4.116823,-87.357277,-45.93124,0.214167,12.244097,-7.069133,6.854117,0.313794,0.02062,0.091251,-3.119948,0,0,0,0,0,18192
18267,0,1,0.043604,22.309999,913.109985,913.138794,-1.157251,3.061536,-4.116823,-87.350113,-46.111015,0.118397,12.302585,-7.102901,6.805458,0.313529,0.025891,0.074216,-0.4487,0,0,0,0,0,18267
18335,0,1,-0.00285,22.309999,913.080017,913.138794,0.717844,3.061536,-4.116823,-87.345573,-46.146103,0.091618,12.310694,-7.107582,6.788988,0.313413,0.021299,0.046666,1.202757,0,0,0,0,0,18335
18394,0,1,-0.207998,22.290001,913.150024,913.138794,0.717844,3.061536,-4.116823,-87.343658,-46.140404,0.063045,12.316168,-7.110743,6.793061,0.313597,0.018518,0.010391,0.70944,0,0,0,0,0,18394
18461,0,1,0.146984,22.309999,913.169983,913.138794,0.717844,3.061536,-4.116823,-87.340019,-46.147224,0.056964,12.335612,-7.121969,6.79122,0.313587,0.020502,0.00136,-1.567478,0,0,0,0,0,18461
18516,0,1,0.853313,22.280001,912.950012,913.138794,2.308877,3.061536,-4.116823,-87.334373,-46.167316,0.071658,12.355119,-7.133231,6.769605,0.313543,0.018045,0.005329,-0.800519,0,0,0,0,0,18516
18575,0,1,0.137915,22.299999,913.099976,913.138794,2.308877,3.061536,-4.116823,-87.329521,-46.177864,0.07701,12.368881,-7.141177,6.758529,0.313719,0.009612,-0.020119,0.948425,0,0,0,0,0,18575
18629,0,1,-0.016958,22.299999,913.119995,913.138794,2.308877,3.061536,-4.116823,-87.328354,-46.173222,0.065864,12.367452,-7.140351,6.769766,0.313891,0.007379,-0.030422,1.187131,0,0,0,0,0,18629
18698,0,1,-0.398529,22.33,913.23999,913.138794,2.308877,3.061536,-4.116823,-87.32711,-46.16465,0.053321,12.368483,-7.140947,6.769274,0.313493,0.006069,-0.023707,-0.503392,0,0,0,0,0,18698
18759,0,1,-0.034903,22.32,913.219971,913.138794,-4.627747,3.061536,-4.627747,-87.323578,-46.17004,0.053147,12.365847,-7.139425,6.75978,0.313271,0.009815,-0.004302,-1.140929,0,0,0,0,0,18759
18809,0,1,0.360235,22.32,913.01001,913.138794,-4.627747,3.061536,-4.627747,-87.318626,-46.180435,0.054353,12.387428,-7.151885,6.75744,0.313397,0.005482,0.004795,-0.388717,0,0,0,0,0,18809
18879,0,1,-0.003748,22.32,913.119995,913.138794,-4.627747,3.061536,-4.627747,-87.315552,-46.182983,0.055461,12.385717,-7.150898,6.754683,0.313341,-0.000873,-0.003785,0.567767,0,0,0,0,0,18879
18948,0,1,0.098708,22.32,913.200012,913.138794,1.970579,3.061536,-4.627747,-87.315308,-46.179451,0.04984,12.373185,-7.143662,6.753403,0.313287,0.002526,0.001555,0.043723,0,0,0,0,0,18948
19001,0,1,0.161319,22.32,913.090027,913.138794,1.970579,3.061536,-4.627747,-87.31189,-46.182945,0.052384,12.377608,-7.146215,6.751424,0.313304,0.002179,-0.006342,-0.771013,0,0,0,0,0,19001
19061,0,1,0.19316,22.33,913.25,913.138794,1.970579,3.061536,-4.627747,-87.307739,-46.189896,0.059587,12.385181,-7.150588,6.746221,0.313321,0.00045,-0.012877,-0.292184,0,0,0,0,0,19061
19134,0,1,-0.081238,22.32,913.119995,913.138794,-1.046106,3.061536,-4.627747,-87.304749,-46.190834,0.059919,12.377911,-7.14639,6.743273,0.313166,-0.001079,-0.005388,0.48564,0,0,0,0,0,19134
19204,0,1,0.027248,22.309999,913.109985,913.138794,-1.046106,3.061536,-4.627747,-87.305458,-46.190422,0.060224,12.372337,-7.143172,6.749708,0.313205,0.000384,-0.001314,0.161492,0,0,0,0,0,19204
19253,0,1,-0.045236,22.33,913.22998,913.138794,-1.046106,3.061536,-4.627747,-87.305817,-46.190228,0.060368,12.378528,-7.146746,6.752248,0.313554,-0.002571,0.010316,-0.189675,0,0,0,0,0,19253
19316,0,1,-0.175787,22.33,913.140015,913.138794,-0.022882,3.061536,-4.627747,-87.306297,-46.18998,0.060554,12.387499,-7.151926,6.749422,0.313394,-0.003503,0.00109,-0.151313,0,0,0,0,0,19316
19385,0,1,0.059462,22.309999,913.130005,913.138794,-0.022882,3.061536,-4.627747,-87.306717,-46.189774,0.060711,12.383523,-7.149631,6.748547,0.313394,-0.0074,-0.026036,0.291453,0,0,0,0,0,19385
19445,0,1,0.150828,22.33,913.070007,913.138794,-0.022882,3.061536,-4.627747,-87.30703,-46.189625,0.060824,12.382095,-7.148806,6.750613,0.313205,-0.005291,-0.033842,0.177101,0,0,0,0,0,19445
19510,0,1,-0.042025,22.35,913.179993,913.138794,-0.022882,3.061536,-4.627747,-87.307365,-46.189468,0.060943,12.387006,-7.151641,6.754518,0.313464,-0.005652,-0.033694,-0.154202,0,0,0,0,0,19510
19577,0,1,-0.120162,22.33,913.190002,913.138794,0.85235,3.061536,-4.627747,-87.303841,-46.189331,0.061046,12.394938,-7.156221,6.752126,0.313412,-0.002251,-0.027638,-0.223739,0,0,0,0,0,19577
19637,0,1,0.535228,22.34,913.099976,913.138794,0.85235,3.061536,-4.627747,-87.302994,-46.189236,0.061122,12.389691,-7.153192,6.747174,0.313271,0.005125,-0.023348,0.076874,0,0,0,0,0,19637
19702,0,1,0.673486,22.33,913.01001,913.138794,0.85235,3.061536,-4.627747,-87.30349,-46.18914,0.058612,12.388081,-7.152262,6.750701,0.313441,0.004552,-0.019561,0.294769,0,0,0,0,0,19702
19759,0,1,0.352764,22.34,913.080017,913.138794,3.651708,3.651708,-4.627747,-87.304024,-46.189049,0.055533,12.388896,-7.152732,6.75308,0.313441,-0.005015,-0.026874,-0.191538,0,0,0,0,0,19759
19840,0,1,-0.108869,22.34,913.26001,913.138794,3.651708,3.651708,-4.627747,-87.304588,-46.188942,0.056051,12.391173,-7.154047,6.749332,0.313521,-0.003393,-0.011282,-0.126579,0,0,0,0,0,19840
19898,0,1,0.090533,22.34,913.080017,913.138794,3.651708,3.651708,-4.627747,-87.304955,-46.188885,0.055739,12.386068,-7.1511,6.745671,0.313078,0.001328,-0.00077,0.212646,0,0,0,0,0,19898
19962,0,1,0.698162,22.33,912.97998,913.138794,-2.522314,3.651708,-4.627747,-87.305359,-46.186073,0.052275,12.3837,-7.149733,6.747323,0.313187,-0.00006,-0.017125,0.233308,0,0,0,0,0,19962
20032,0,1,0.389826,22.34,913.02002,913.138794,-2.522314,3.651708,-4.627747,-87.305725,-46.185028,0.04886,12.381772,-7.14862,6.747389,0.313241,-0.004777,-0.006685,-0.10431,0,0,0,0,0,20032
20086,0,1,0.284815,22.35,913.059998,913.138794,-2.522314,3.651708,-4.627747,-87.306007,-46.185143,0.046084,12.384521,-7.150206,6.746034,0.313113,-0.002763,-0.017735,-0.057879,0,0,0,0,0,20086
20155,0,1,0.744143,22.34,912.98999,913.138794,0.358991,3.651708,-4.627747,-87.306328,-46.185257,0.04287,12.381951,-7.148723,6.743359,0.31307,-0.008065,-0.033848,0.147916,0,0,0,0,0,20155
20224,0,1,-0.070991,22.35,913.140015,913.138794,0.358991,3.651708,-4.627747,-87.30661,-46.185371,0.039811,12.382521,-7.149052,6.7452,0.313028,-0.01086,-0.019235,0.230342,0,0,0,0,0,20224
20280,0,1,-0.01308,22.360001,913.130005,913.138794,0.358991,3.651708,-4.627747,-87.306839,-46.185452,0.037395,12.384916,-7.150435,6.748518,0.313249,-0.013556,-0.03099,0.117967,0,0,0,0,0,20280
20336,0,1,-0.15517,22.360001,913.119995,913.138794,-2.276386,3.651708,-4.627747,-87.307045,-46.185528,0.035109,12.383648,-7.149703,6.747649,0.313169,-0.018337,-0.008938,0.065095,0,0,0,0,0,20336
20426,0,1,-0.407588,22.35,913.200012,913.138794,-2.276386,3.651708,-4.627747,-87.30735,-46.18565,0.03173,12.384366,-7.150117,6.750793,0.313091,-0.017829,-0.008394,0.024194,0,0,0,0,0,20426
20474,0,1,-0.153386,22.360001,913.169983,913.138794,-2.276386,3.651708,-4.627747,-87.307503,-46.185696,0.030168,12.383845,-7.149817,6.752243,0.312831,-0.01464,-0.018043,-0.002298,0,0,0,0,0,20474
20541,0,1,-0.217152,22.360001,913.080017,913.138794,-0.302352,3.651708,-4.627747,-87.307693,-46.185764,0.027982,12.389969,-7.153352,6.753064,0.312796,-0.015226,-0.010913,-0.174382,0,0,0,0,0,20541
20609,0,1,-0.031038,22.360001,913.200012,913.138794,-0.302352,3.651708,-4.627747,-87.307877,-46.185833,0.025976,12.392183,-7.15463,6.751009,0.312763,-0.015825,-0.013583,-0.005448,0,0,0,0,0,20609
20679,0,1,-0.137565,22.370001,913.219971,913.138794,-0.302352,3.651708,-4.627747,-87.30806,-46.183846,0.024141,12.388288,-7.152382,6.752708,0.312976,-0.008235,-0.023644,0.179357,0,0,0,0,0,20679
20737,0,1,-0.282112,22.370001,913.130005,913.138794,-0.302352,3.651708,-4.627747,-87.308212,-46.182678,0.023475,12.386657,-7.15144,6.753862,0.313047,-0.005852,-0.01791,-0.088362,0,0,0,0,0,20737
20802,0,1,0.054078,22.370001,913.130005,913.138794,0.570836,3.651708,-4.627747,-87.307198,-46.182884,0.026195,12.396397,-7.157063,6.75461,0.3133,-0.006101,-0.034647,-0.369156,0,0,0,0,0,20802
20882,0,1,0.419512,22.370001,912.950012,913.138794,0.570836,3.651708,-4.627747,-87.305855,-46.183098,0.029157,12.398299,-7.158162,6.753882,0.313531,-0.014355,-0.034673,0.326061,0,0,0,0,0,20882
20931,0,1,0.184462,22.370001,913.030029,913.138794,0.570836,3.651708,-4.627747,-87.306038,-46.181953,0.027772,12.392952,-7.155074,6.750984,0.313462,-0.016654,-0.026568,0.534112,0,0,0,0,0,20931
20996,0,1,-0.174684,22.379999,913.200012,913.138794,0.949728,3.651708,-4.627747,-87.306282,-46.179527,0.025833,12.386888,-7.151573,6.755104,0.313552,-0.021763,-0.021232,0.09151,0,0,0,0,0,20996
21064,0,1,-0.22924,22.370001,913.090027,913.138794,0.949728,3.651708,-4.627747,-87.306511,-46.179428,0.026962,12.391493,-7.154232,6.75561,0.313692,-0.021147,-0.009912,-0.425329,0,0,0,0,0,21064
21123,0,1,-0.132296,22.389999,913.070007,913.138794,0.949728,3.651708,-4.627747,-87.306702,-46.179722,0.029036,12.391321,-7.154133,6.750282,0.313506,-0.025051,-0.02775,-0.073858,0,0,0,0,0,21123
21190,0,1,0.031618,22.379999,913.080017,913.138794,1.205689,3.651708,-4.627747,-87.306915,-46.177761,0.027017,12.384444,-7.150162,6.748684,0.313501,-0.035588,-0.015977,0.666508,0,0,0,0,0,21190
21257,0,1,0.108619,22.4,913.02002,913.138794,1.205689,3.651708,-4.627747,-87.307098,-46.172607,359.930084,12.378692,-7.146841,6.75047,0.3134,-0.02827,-0.011075,0.447578,0,0,0,0,0,21257
21306,0,1,0.108816,22.379999,913.169983,913.138794,1.205689,3.651708,-4.627747,-87.30722,-46.170853,0.08839,12.379836,-7.147502,6.75523,0.313625,-0.033692,-0.015111,-0.745783,0,0,0,0,0,21306
21357,0,1,-0.032122,22.4,913.330017,913.138794,-1.837889,3.651708,-4.627747,-87.30629,-46.171631,0.05209,12.375731,-7.145132,6.750067,0.313489,-0.032662,-0.007458,-1.09322,0,0,0,0,0,21357
21425,0,1,-0.436078,22.41,913.23999,913.138794,-1.837889,3.651708,-4.627747,-87.304626,-46.172501,0.057753,12.390669,-7.153756,6.744715,0.313533,-0.021327,-0.007707,0.126136,0,0,0,0,0,21425
21496,0,1,0.142565,22.370001,913.039978,913.138794,-1.837889,3.651708,-4.627747,-87.304916,-46.171036,0.040468,12.389688,-7.153189,6.749777,0.313575,-0.029024,-0.01685,1.001443,0,0,0,0,0,21496
21576,0,1,0.295496,22.4,913.039978,913.138794,1.060819,3.651708,-4.627747,-87.305237,-46.163445,359.932587,12.383005,-7.149332,6.754807,0.313741,-0.030517,-0.013706,0.239012,0,0,0,0,0,21576
21640,0,1,0.7313,22.389999,913.049988,913.138794,1.060819,3.651708,-4.627747,-87.305511,-46.160851,0.009122,12.378093,-7.146495,6.754667,0.313496,-0.023218,-0.00551,-0.877232,0,0,0,0,0,21640
21710,0,1,0.214527,22.41,913.27002,913.138794,1.060819,3.651708,-4.627747,-87.304245,-46.162647,0.041373,12.380465,-7.147864,6.748362,0.313442,-0.015164,0.00744,-0.75249,0,0,0,0,0,21710
21768,0,1,0.168176,22.389999,913.150024,913.138794,-0.083349,3.651708,-4.627747,-87.303734,-46.163326,0.04473,12.388522,-7.152517,6.748822,0.31369,-0.014608,-0.005104,0.341154,0,0,0,0,0,21768
21821,0,1,0.293244,22.41,913.039978,913.138794,-0.083349,3.651708,-4.627747,-87.304001,-46.161171,0.031463,12.387362,-7.151846,6.750101,0.31384,-0.021481,-0.015248,0.760393,0,0,0,0,0,21821
21892,0,1,0.733509,22.41,913.039978,913.138794,-0.083349,3.651708,-4.627747,-87.304321,-46.158722,0.022782,12.380272,-7.147753,6.752746,0.313919,-0.017742,-0.01303,-0.025811,0,0,0,0,0,21892
21946,0,1,0.98761,22.41,913.030029,913.138794,-0.083349,3.651708,-4.627747,-87.304573,-46.156796,0.018345,12.38452,-7.150206,6.751343,0.313733,-0.008502,0.007061,-0.566602,0,0,0,0,0,21946
22024,0,1,0.705246,22.42,913.159973,913.138794,2.499359,3.651708,-4.627747,-87.304848,-46.154633,0.014759,12.389118,-7.152861,6.749304,0.313534,-0.020341,0.018289,0.347347,0,0,0,0,0,22024
22094,0,1,0.535608,22.4,913.080017,913.138794,2.499359,3.651708,-4.627747,-87.305168,-46.149303,359.92688,12.383403,-7.149561,6.752202,0.313041,-0.03116,-0.00186,0.295518,0,0,0,0,0,22094
22138,0,1,0.446408,22.4,913.090027,913.138794,2.499359,3.651708,-4.627747,-87.305344,-46.148102,0.073278,12.375407,-7.144945,6.750933,0.313125,-0.034461,0.013022,-0.374644,0,0,0,0,0,22138
22195,0,1,0.386805,22.41,913.080017,913.138794,-1.29878,3.651708,-4.627747,-87.305534,-46.149757,0.039813,12.38242,-7.148993,6.748643,0.312953,-0.031752,-0.01026,-0.70142,0,0,0,0,0,22195
22266,0,1,0.431962,22.440001,913.070007,913.138794,-1.29878,3.651708,-4.627747,-87.305763,-46.151726,0.040639,12.387336,-7.151832,6.743811,0.313015,-0.034606,0.007872,0.207585,0,0,0,0,0,22266
22334,0,1,0.253517,22.43,913.119995,913.138794,-1.29878,3.651708,-4.627747,-87.305992,-46.148224,359.667664,12.380631,-7.147961,6.740621,0.31254,-0.037359,-0.005966,0.820982,0,0,0,0,0,22334
22387,0,1,0.489087,22.42,913.109985,913.138794,0.574277,3.651708,-4.627747,-87.306183,-46.142643,359.933624,12.372058,-7.143011,6.743128,0.312079,-0.043679,0.013763,0.105575,0,0,0,0,0,22387
22445,0,1,0.160518,22.43,913.080017,913.138794,0.574277,3.651708,-4.627747,-87.306335,-46.141453,0.017705,12.376394,-7.145514,6.745045,0.311873,-0.044478,0.009397,-0.804255,0,0,0,0,0,22445
22512,0,1,0.512013,22.41,913.059998,913.138794,0.574277,3.651708,-4.627747,-87.306519,-46.145096,0.055715,12.382543,-7.149064,6.739114,0.311408,-0.043262,0.002043,-0.557756,0,0,0,0,0,22512
22581,0,1,0.641463,22.43,913.080017,913.138794,0.544446,3.651708,-4.627747,-87.306702,-46.145935,0.039128,12.378772,-7.146887,6.737886,0.311001,-0.042928,-0.00383,0.53322,0,0,0,0,0,22581
22650,0,1,0.646229,22.42,913.049988,913.138794,0.544446,3.651708,-4.627747,-87.306885,-46.144306,0.025872,12.372626,-7.143339,6.741602,0.310808,-0.038267,0.014299,0.160897,0,0,0,0,0,22650
22721,0,1,0.528368,22.440001,913.140015,913.138794,0.544446,3.651708,-4.627747,-87.307068,-46.145248,0.027438,12.379097,-7.147075,6.742163,0.31072,-0.035747,0.021587,-0.589401,0,0,0,0,0,22721
22773,0,1,0.580941,22.440001,913.130005,913.138794,0.544446,3.651708,-4.627747,-87.307198,-46.147942,0.034165,12.385962,-7.151038,6.740942,0.310757,-0.03866,0.022573,-0.205887,0,0,0,0,0,22773
22843,0,1,0.524961,22.440001,913.200012,913.138794,-1.740314,3.651708,-4.627747,-87.307335,-46.146969,0.02942,12.380124,-7.147668,6.739683,0.310564,-0.033085,0.002148,0.45309,0,0,0,0,0,22843
22913,0,1,-0.10224,22.43,913.219971,913.138794,-1.740314,3.651708,-4.627747,-87.307472,-46.14613,0.024292,12.378665,-7.146826,6.742086,0.310374,-0.028244,0.008456,-0.100741,0,0,0,0,0,22913
22971,0,1,0.329487,22.43,913.01001,913.138794,-1.740314,3.651708,-4.627747,-87.306999,-46.148685,0.029407,12.389743,-7.153221,6.742943,0.310423,-0.026299,0.000559,-0.469209,0,0,0,0,0,22971
23036,0,1,0.423052,22.43,912.969971,913.138794,-0.389565,3.651708,-4.627747,-87.305626,-46.151569,0.034268,12.39255,-7.154842,6.740627,0.310803,-0.027167,-0.007227,0.199459,0,0,0,0,0,23036
23105,0,1,-0.297576,22.450001,913.210022,913.138794,-0.389565,3.651708,-4.627747,-87.305855,-46.150349,0.030981,12.384915,-7.150434,6.743364,0.310832,-0.0291,-0.001238,0.563026,0,0,0,0,0,23105
23165,0,1,0.419942,22.43,913.049988,913.138794,-0.389565,3.651708,-4.627747,-87.306007,-46.148796,0.027637,12.382309,-7.14893,6.747398,0.310806,-0.026011,-0.020314,0.014939,0,0,0,0,0,23165
23217,0,1,0.265249,22.450001,913.099976,913.138794,0.089807,3.651708,-4.627747,-87.30616,-46.150402,0.028691,12.389503,-7.153083,6.748131,0.311005,-0.021869,-0.027214,-0.594233,0,0,0,0,0,23217
23308,0,1,0.359515,22.450001,913.150024,913.138794,0.089807,3.651708,-4.627747,-87.306404,-46.153957,0.03256,12.394948,-7.156227,6.745117,0.31107,-0.019846,-0.015391,0.303258,0,0,0,0,0,23308
23367,0,1,0.14012,22.450001,913.190002,913.138794,0.089807,3.651708,-4.627747,-87.306557,-46.152191,0.029555,12.389421,-7.153035,6.74553,0.31088,-0.016661,-0.002082,0.378476,0,0,0,0,0,23367
23420,0,1,0.302964,22.459999,913.169983,913.138794,1.647717,3.651708,-4.627747,-87.306709,-46.151318,0.026926,12.386038,-7.151083,6.747718,0.311071,-0.010948,0.008447,-0.430821,0,0,0,0,0,23420
23490,0,1,0.858478,22.440001,913.02002,913.138794,1.647717,3.651708,-4.627747,-87.305359,-46.153915,0.03056,12.393605,-7.155451,6.744723,0.310875,-0.014744,-0.01212,-0.568407,0,0,0,0,0,23490
23560,0,1,0.526036,22.440001,913.099976,913.138794,1.647717,3.651708,-4.627747,-87.304634,-46.156326,0.033722,12.394435,-7.155931,6.742021,0.31074,-0.011381,-0.007099,0.396879,0,0,0,0,0,23560
23603,0,1,0.340352,22.459999,913.109985,913.138794,-1.065174,3.651708,-4.627747,-87.304794,-46.154812,0.031518,12.388865,-7.152714,6.742362,0.310669,-0.014478,-0.020203,0.704872,0,0,0,0,0,23603
23671,0,1,0.441265,22.450001,912.97998,913.138794,-1.065174,3.651708,-4.627747,-87.305023,-46.15345,0.028548,12.384827,-7.150383,6.744672,0.310914,-0.014697,-0.031371,-0.442634,0,0,0,0,0,23671
23741,0,1,0.54196,22.469999,913.080017,913.138794,-1.065174,3.651708,-4.627747,-87.303932,-46.155872,0.031664,12.391777,-7.154396,6.741486,0.311102,-0.015553,-0.024155,-0.662836,0,0,0,0,0,23741
23793,0,1,0.115598,22.48,913.289978,913.138794,-1.065174,3.651708,-4.627747,-87.302422,-46.157753,0.03399,12.390965,-7.153927,6.73752,0.310537,-0.012639,-0.020503,0.152176,0,0,0,0,0,23793
23843,0,1,-0.102168,22.459999,913.169983,913.138794,-1.698399,3.651708,-4.627747,-87.302727,-46.158012,0.033294,12.388976,-7.152779,6.74095,0.310682,-0.02054,-0.040036,0.707378,0,0,0,0,0,23843
23901,0,1,0.187455,22.469999,913.119995,913.138794,-1.698399,3.651708,-4.627747,-87.303001,-46.156059,0.03087,12.384817,-7.150378,6.744759,0.310935,-0.015701,-0.038717,0.28825,0,0,0,0,0,23901
23977,0,1,0.493384,22.469999,913.02002,913.138794,-1.698399,3.651708,-4.627747,-87.302292,-46.158627,0.03314,12.385554,-7.150803,6.741799,0.311064,-0.013602,-0.027415,-0.515746,0,0,0,0,0,23977
24036,0,1,0.66708,22.48,913.109985,913.138794,2.051571,3.651708,-4.627747,-87.300705,-46.16032,0.035197,12.387669,-7.152024,6.739497,0.31087,-0.012005,-0.029104,-0.161763,0,0,0,0,0,24036
24096,0,1,0.24756,22.469999,913.130005,913.138794,2.051571,3.651708,-4.627747,-87.300301,-46.161903,0.037073,12.389898,-7.153311,6.741961,0.311229,-0.018803,-0.03477,0.242676,0,0,0,0,0,24096
24157,0,1,0.225258,22.48,913.150024,913.138794,2.051571,3.651708,-4.627747,-87.300758,-46.163654,0.039106,12.387077,-7.151682,6.743297,0.311572,-0.025389,-0.029828,0.12335,0,0,0,0,0,24157
24207,0,1,0.239557,22.49,913.119995,913.138794,2.051571,3.651708,-4.627747,-87.30114,-46.165009,0.040636,12.38685,-7.151551,6.74281,0.311581,-0.025624,-0.031198,-0.056646,0,0,0,0,0,24207
24258,0,1,0.005727,22.5,913.210022,913.138794,-1.167347,3.651708,-4.627747,-87.301483,-46.166267,0.042031,12.391734,-7.154371,6.742313,0.311593,-0.029814,-0.034593,-0.057728,0,0,0,0,0,24258
24319,0,1,0.086118,22.49,913.059998,913.138794,-1.167347,3.651708,-4.627747,-87.301895,-46.167652,0.043546,12.387296,-7.151808,6.741423,0.312082,-0.0183,-0.047904,0.093446,0,0,0,0,0,24319
24389,0,1,0.195896,22.52,913.140015,913.138794,-1.167347,3.651708,-4.627747,-87.302338,-46.169125,0.045117,12.385342,-7.15068,6.74245,0.312004,-0.016527,-0.05287,0.026236,0,0,0,0,0,24389
24440,0,1,-0.163608,22.51,913.23999,913.138794,-1.24693,3.651708,-4.627747,-87.302643,-46.170086,0.046127,12.387805,-7.152102,6.743482,0.311951,-0.022215,-0.060673,-0.175613,0,0,0,0,0,24440
24502,0,1,-0.058551,22.51,913.080017,913.138794,-1.24693,3.651708,-4.627747,-87.303001,-46.17115,0.047227,12.387985,-7.152206,6.740588,0.311997,-0.020579,-0.073257,-0.114332,0,0,0,0,0,24502
24582,0,1,0.003698,22.51,913.090027,913.138794,-1.24693,3.651708,-4.627747,-87.303375,-46.172279,0.048377,12.387179,-7.151742,6.740293,0.312025,-0.006734,-0.071141,0.191605,0,0,0,0,0,24582
24631,0,1,0.051953,22.5,913.119995,913.138794,0.676297,3.651708,-4.627747,-87.303589,-46.172874,0.048977,12.387018,-7.151648,6.741302,0.312035,-0.002853,-0.068206,0.084422,0,0,0,0,0,24631
24696,0,1,0.342095,22.5,913.109985,913.138794,0.676297,3.651708,-4.627747,-87.303123,-46.173576,0.049673,12.388217,-7.15234,6.740341,0.311983,-0.001152,-0.055105,-0.330435,0,0,0,0,0,24696
24764,0,1,0.387579,22.5,913.119995,913.138794,0.676297,3.651708,-4.627747,-87.300873,-46.174477,0.050559,12.390656,-7.153749,6.737892,0.312116,-0.00385,-0.059352,-0.11688,0,0,0,0,0,24764
24824,0,1,0.092122,22.52,913.169983,913.138794,0.676297,3.651708,-4.627747,-87.300461,-46.175068,0.051135,12.390453,-7.153632,6.738007,0.312111,-0.006063,-0.051494,0.321574,0,0,0,0,0,24824
24878,0,1,0.221363,22.530001,913.099976,913.138794,0.938765,3.651708,-4.627747,-87.300842,-46.175621,0.051669,12.389054,-7.152824,6.740741,0.311958,-0.009457,-0.047523,0.227428,0,0,0,0,0,24878
24935,0,1,0.292722,22.52,913.109985,913.138794,0.938765,3.651708,-4.627747,-87.301224,-46.176136,0.052165,12.388578,-7.152549,6.74056,0.311959,-0.012494,-0.047499,-0.061764,0,0,0,0,0,24935
25006,0,1,0.176424,22.52,913.130005,913.138794,0.938765,3.651708,-4.627747,-87.301643,-46.176712,0.052714,12.389799,-7.153254,6.739875,0.311899,-0.015929,-0.035428,-0.120211,0,0,0,0,0,25006
25060,0,1,0.071689,22.52,913.190002,913.138794,-0.632987,3.651708,-4.627747,-87.301987,-46.177158,0.053137,12.390987,-7.15394,6.740838,0.312,-0.010297,-0.04158,0.032666,0,0,0,0,0,25060
25138,0,1,0.177943,22.52,913.130005,913.138794,-0.632987,3.651708,-4.627747,-87.302376,-46.177658,0.053607,12.39133,-7.154138,6.743159,0.311792,-0.016582,-0.045872,0.075487,0,0,0,0,0,25138
25208,0,1,0.303614,22.51,913,913.138794,-0.632987,3.651708,-4.627747,-87.302803,-46.178196,0.05411,12.391803,-7.154411,6.742428,0.311881,-0.013175,-0.039657,-0.172879,0,0,0,0,0,25208
25266,0,1,0.400945,22.530001,913.099976,913.138794,2.160592,3.651708,-4.627747,-87.303101,-46.178551,0.054441,12.392038,-7.154547,6.739694,0.311984,-0.012742,-0.04382,-0.077265,0,0,0,0,0,25266
25331,0,1,0.500987,22.51,913.049988,913.138794,2.160592,3.651708,-4.627747,-87.303421,-46.178951,0.053346,12.393778,-7.155551,6.741587,0.312475,-0.011029,-0.057051,0.203175,0,0,0,0,0,25331
25400,0,1,0.282214,22.530001,913.090027,913.138794,2.160592,3.651708,-4.627747,-87.303741,-46.179325,0.052307,12.39485,-7.15617,6.743014,0.312452,-0.015199,-0.058409,-0.129354,0,0,0,0,0,25400
25458,0,1,0.4961,22.530001,913,913.138794,-0.959096,3.651708,-4.627747,-87.304001,-46.179615,0.052717,12.394271,-7.155836,6.738594,0.312392,-0.019148,-0.047352,-0.235157,0,0,0,0,0,25458
25524,0,1,0.778674,22.530001,913.080017,913.138794,-0.959096,3.651708,-4.627747,-87.304276,-46.179943,0.053177,12.394463,-7.155946,6.736939,0.31232,-0.01258,-0.0311,0.063716,0,0,0,0,0,25524
25593,0,1,1.042317,22.530001,912.97998,913.138794,-0.959096,3.651708,-4.627747,-87.30455,-46.177612,0.050646,12.389645,-7.153164,6.739031,0.312447,-0.019185,-0.029122,0.290172,0,0,0,0,0,25593
25673,0,1,0.927769,22.530001,913.049988,913.138794,3.603562,3.651708,-4.627747,-87.304169,-46.177223,0.050325,12.388116,-7.152282,6.740649,0.312652,-0.015399,-0.022073,-0.426218,0,0,0,0,0,25673
25744,0,1,1.048229,22.52,913.070007,913.138794,3.603562,3.651708,-4.627747,-87.302284,-46.177673,0.050922,12.392883,-7.155035,6.73613,0.312717,-0.010304,-0.024252,-0.159434,0,0,0,0,0,25744
25824,0,1,0.612729,22.51,913,913.138794,3.603562,3.651708,-4.627747,-87.301979,-46.177258,0.050556,12.39154,-7.154259,6.736575,0.312674,-0.01389,-0.020502,0.600893,0,0,0,0,0,25824
25877,0,1,0.220865,22.530001,913.179993,913.138794,-3.958119,3.651708,-4.627747,-87.302307,-46.176262,0.049002,12.386437,-7.151313,6.738278,0.312658,-0.019907,-0.010015,-0.178544,0,0,0,0,0,25877
25926,0,1,0.532112,22.52,913.080017,913.138794,-3.958119,3.651708,-4.627747,-87.301392,-46.177555,0.049984,12.388698,-7.152618,6.737433,0.31232,-0.01922,-0.02228,-0.893304,0,0,0,0,0,25926
25994,0,1,0.546976,22.530001,913.090027,913.138794,-3.958119,3.651708,-4.627747,-87.299377,-46.181068,0.05396,12.394038,-7.155701,6.73203,0.311968,-0.016481,-0.023391,-0.314912,0,0,0,0,0,25994
26059,0,1,0.341771,22.540001,913.140015,913.138794,0.152922,3.651708,-4.627747,-87.298645,-46.181927,0.053851,12.390656,-7.153749,6.732839,0.311471,-0.026822,-0.025097,1.04153,0,0,0,0,0,26059
26118,0,1,0.262738,22.540001,913.140015,913.138794,0.152922,3.651708,-4.627747,-87.299133,-46.179455,0.051316,12.386769,-7.151505,6.736454,0.311434,-0.026786,-0.009976,0.096266,0,0,0,0,0,26118
26176,0,1,0.234201,22.549999,913.030029,913.138794,0.152922,3.651708,-4.627747,-87.298721,-46.18037,0.051264,12.387964,-7.152194,6.737914,0.311253,-0.024962,-0.004253,-0.971585,0,0,0,0,0,26176
26241,0,1,0.194907,22.559999,913.210022,913.138794,0.152922,3.651708,-4.627747,-87.296616,-46.184227,0.055651,12.393204,-7.15522,6.731825,0.311121,-0.026007,0.000362,-0.318129,0,0,0,0,0,26241
26300,0,1,-0.115969,22.559999,913.179993,913.138794,0.751117,3.651708,-4.627747,-87.295807,-46.18499,0.056006,12.392306,-7.154701,6.730839,0.31119,-0.036469,0.000022,0.649679,0,0,0,0,0,26300
26370,0,1,0.022012,22.549999,913.109985,913.138794,0.751117,3.651708,-4.627747,-87.29657,-46.185127,0.053203,12.388765,-7.152657,6.736212,0.311345,-0.032896,-0.004945,0.225742,0,0,0,0,0,26370
26434,0,1,0.041506,22.559999,913.130005,913.138794,0.751117,3.651708,-4.627747,-87.29538,-46.186378,0.054425,12.391173,-7.154047,6.73638,0.311447,-0.032565,-0.002406,-0.847629,0,0,0,0,0,26434
26492,0,1,0.113742,22.549999,913.080017,913.138794,-2.019099,3.651708,-4.627747,-87.293556,-46.189342,0.058177,12.394517,-7.155978,6.733716,0.311317,-0.037484,-0.002189,-0.184525,0,0,0,0,0,26492
26551,0,1,0.471378,22.57,913.039978,913.138794,-2.019099,3.651708,-4.627747,-87.292282,-46.18985,0.058412,12.394696,-7.156081,6.734144,0.311617,-0.043386,-0.006717,0.549895,0,0,0,0,0,26551
26631,0,1,-0.006429,22.559999,913.200012,913.138794,-2.019099,3.651708,-4.627747,-87.293457,-46.189697,0.058703,12.392039,-7.154547,6.736603,0.311471,-0.035021,-0.01155,-0.048204,0,0,0,0,0,26631
26685,0,1,0.260184,22.559999,913.049988,913.138794,0.26218,3.651708,-4.627747,-87.292145,-46.189602,0.058889,12.394551,-7.155998,6.736314,0.311158,-0.030711,-0.027103,-0.244068,0,0,0,0,0,26685
26755,0,1,0.166052,22.58,913.23999,913.138794,0.26218,3.651708,-4.627747,-87.290314,-46.18951,0.059059,12.394759,-7.156117,6.73444,0.311224,-0.025551,-0.022457,-0.095283,0,0,0,0,0,26755
26823,0,1,0.182351,22.58,913.140015,913.138794,0.26218,3.651708,-4.627747,-87.290604,-46.189404,0.057573,12.392838,-7.155009,6.734686,0.311375,-0.021552,-0.02663,0.427986,0,0,0,0,0,26823
26888,0,1,0.247031,22.58,913.090027,913.138794,0.362343,3.651708,-4.627747,-87.291771,-46.189312,0.054315,12.389061,-7.152828,6.736683,0.311149,-0.03428,-0.019339,0.105048,0,0,0,0,0,26888
26947,0,1,0.144899,22.559999,913.179993,913.138794,0.362343,3.651708,-4.627747,-87.292694,-46.189243,0.053506,12.391277,-7.154107,6.736767,0.311118,-0.037975,-0.018516,-0.27055,0,0,0,0,0,26947
27001,0,1,0.084191,22.58,913.119995,913.138794,0.362343,3.651708,-4.627747,-87.293564,-46.189186,0.053942,12.392933,-7.155063,6.733821,0.310614,-0.035331,-0.028994,-0.197443,0,0,0,0,0,27001
27080,0,1,0.118315,22.559999,913.030029,913.138794,-0.465864,3.651708,-4.627747,-87.294708,-46.187328,0.051514,12.391061,-7.153982,6.735718,0.310208,-0.02686,-0.028203,0.330005,0,0,0,0,0,27080
27129,0,1,0.119796,22.57,913.150024,913.138794,-0.465864,3.651708,-4.627747,-87.295319,-46.185932,0.049446,12.391369,-7.15416,6.738158,0.310349,-0.030635,-0.025244,-0.097164,0,0,0,0,0,27129
27193,0,1,-0.008904,22.58,913.169983,913.138794,-0.465864,3.651708,-4.627747,-87.294571,-46.186001,0.05023,12.392395,-7.154753,6.736362,0.310053,-0.027654,-0.021826,-0.465948,0,0,0,0,0,27193
27262,0,1,0.316352,22.58,913.070007,913.138794,-0.465864,3.651708,-4.627747,-87.292213,-46.186069,0.050943,12.392354,-7.154729,6.733828,0.310196,-0.029525,-0.024647,0.07932,0,0,0,0,0,27262
27321,0,1,0.565996,22.59,913.090027,913.138794,2.244142,3.651708,-4.627747,-87.290276,-46.186127,0.051489,12.388759,-7.152653,6.735396,0.310285,-0.032086,-0.016495,0.100813,0,0,0,0,0,27321
27391,0,1,0.038619,22.59,913.159973,913.138794,2.244142,3.651708,-4.627747,-87.288002,-46.186172,0.052093,12.393735,-7.155526,6.736735,0.310281,-0.0283,-0.009406,-0.238902,0,0,0,0,0,27391
27445,0,1,0.318449,22.59,913.080017,913.138794,2.244142,3.651708,-4.627747,-87.286156,-46.186211,0.052558,12.394645,-7.156052,6.733724,0.310227,-0.026394,-0.023287,-0.157546,0,0,0,0,0,27445
27525,0,1,0.569709,22.59,913.090027,913.138794,0.093908,3.651708,-4.627747,-87.286774,-46.186264,0.053155,12.39418,-7.155783,6.736321,0.31017,-0.031201,-0.026626,0.257668,0,0,0,0,0,27525
27584,0,1,-0.041451,22.59,913.179993,913.138794,0.093908,3.651708,-4.627747,-87.285561,-46.187069,0.054076,12.385808,-7.150949,6.737746,0.310068,-0.021452,-0.018921,-0.813227,0,0,0,0,0,27584
27640,0,1,0.14013,22.620001,913.140015,913.138794,0.093908,3.651708,-4.627747,-87.283783,-46.19128,0.059545,12.394434,-7.15593,6.73649,0.310115,-0.018628,-0.017799,-1.757654,0,0,0,0,0,27640
27716,0,1,0.370689,22.610001,913.080017,913.138794,-1.255067,3.651708,-4.627747,-87.281403,-46.200733,0.072567,12.410541,-7.165229,6.724741,0.310164,-0.015605,-0.029931,1.345962,0,0,0,0,0,27716
27766,0,1,0.185771,22.620001,913.080017,913.138794,-1.255067,3.651708,-4.627747,-87.280449,-46.201969,0.073549,12.400631,-7.159508,6.723816,0.309822,-0.025589,-0.015445,2.384593,0,0,0,0,0,27766
27837,0,1,-0.1008,22.620001,913.169983,913.138794,-1.255067,3.651708,-4.627747,-87.282417,-46.197697,0.067521,12.383146,-7.149413,6.737817,0.310265,-0.022037,-0.009298,-0.269683,0,0,0,0,0,27837
27905,0,1,0.10272,22.620001,913.030029,913.138794,-1.181095,3.651708,-4.627747,-87.281036,-46.202042,0.072494,12.389144,-7.152875,6.736487,0.310307,-0.024826,0.004688,-2.580225,0,0,0,0,0,27905
27949,0,1,0.479811,22.610001,912.960022,913.138794,-1.181095,3.651708,-4.627747,-87.279739,-46.211159,0.083941,12.402467,-7.160567,6.721806,0.310252,-0.033912,0.000147,-0.546939,0,0,0,0,0,27949
28008,0,1,0.366382,22.610001,913.090027,913.138794,-1.181095,3.651708,-4.627747,-87.278183,-46.216812,0.089822,12.41781,-7.169426,6.720548,0.310389,-0.044456,0.002005,2.739518,0,0,0,0,0,28008
28073,0,1,0.200533,22.610001,913.109985,913.138794,-1.181095,3.651708,-4.627747,-87.280334,-46.208958,0.080924,12.40105,-7.15975,6.738537,0.31038,-0.046757,-0.003626,1.190403,0,0,0,0,0,28073
28153,0,1,0.328053,22.6,913.070007,913.138794,1.124494,3.651708,-4.627747,-87.279381,-46.210785,0.082192,12.398876,-7.158494,6.741484,0.310275,-0.040891,-0.00078,-2.520469,0,0,0,0,0,28153
28201,0,1,-0.044089,22.629999,913.200012,913.138794,1.124494,3.651708,-4.627747,-87.27813,-46.221508,0.094492,12.410086,-7.164966,6.727825,0.310223,-0.036494,0.005041,-1.478734,0,0,0,0,0,28201
28261,0,1,0.464374,22.610001,913.059998,913.138794,1.124494,3.651708,-4.627747,-87.276642,-46.231777,0.106114,12.416217,-7.168506,6.723073,0.310264,-0.030262,-0.004386,1.629587,0,0,0,0,0,28261
28326,0,1,0.339623,22.639999,913.039978,913.138794,-0.767195,3.651708,-4.627747,-87.276306,-46.228905,0.103056,12.398319,-7.158173,6.734164,0.310303,-0.031179,-0.00914,1.473625,0,0,0,0,0,28326
28384,0,1,-0.009287,22.620001,913.150024,913.138794,-0.767195,3.651708,-4.627747,-87.274918,-46.227348,0.10146,12.391886,-7.154459,6.735751,0.310154,-0.025454,-0.013085,-0.875809,0,0,0,0,0,28384
28433,0,1,-0.00118,22.610001,913.150024,913.138794,-0.767195,3.651708,-4.627747,-87.273865,-46.231483,0.105994,12.40011,-7.159207,6.73428,0.31034,-0.018064,-0.009298,-1.237672,0,0,0,0,0,28433
28512,0,1,-0.278065,22.65,913.179993,913.138794,-0.767195,3.651708,-4.627747,-87.272148,-46.242321,0.117646,12.416609,-7.168732,6.728227,0.310093,-0.014577,-0.012453,0.045973,0,0,0,0,0,28512
28579,0,1,-0.214229,22.639999,913.159973,913.138794,-2.17661,3.651708,-4.627747,-87.27079,-46.245602,0.119798,12.406597,-7.162952,6.73017,0.310139,-0.007065,0.00203,0.730931,0,0,0,0,0,28579
28637,0,1,-0.199861,22.620001,913.179993,913.138794,-2.17661,3.651708,-4.627747,-87.269737,-46.246002,0.120288,12.399469,-7.158837,6.728762,0.309946,-0.007687,0.007185,0.011855,0,0,0,0,0,28637
28707,0,1,0.068161,22.629999,913.049988,913.138794,-2.17661,3.651708,-4.627747,-87.26857,-46.246399,0.120771,12.405936,-7.16257,6.726902,0.309902,-0.014275,0.003712,-0.294304,0,0,0,0,0,28707
28777,0,1,0.168991,22.629999,913.150024,913.138794,1.48282,3.651708,-4.627747,-87.267487,-46.246723,0.121167,12.403008,-7.16088,6.726552,0.309859,-0.014112,-0.006092,0.130909,0,0,0,0,0,28777
28830,0,1,0.218979,22.620001,913.070007,913.138794,1.48282,3.651708,-4.627747,-87.266647,-46.246956,0.121447,12.396167,-7.15693,6.727765,0.30977,-0.017435,-0.014654,0.209017,0,0,0,0,0,28830
28889,0,1,0.014344,22.639999,913.099976,913.138794,1.48282,3.651708,-4.627747,-87.265862,-46.247158,0.12169,12.396225,-7.156964,6.727876,0.309681,-0.01539,-0.025333,-0.188864,0,0,0,0,0,28889
28959,0,1,0.083881,22.65,913.049988,913.138794,-1.795564,3.651708,-4.627747,-87.264977,-46.247372,0.121943,12.402866,-7.160798,6.725931,0.309693,-0.01109,-0.034639,-0.189614,0,0,0,0,0,28959
29012,0,1,-0.022769,22.639999,913.219971,913.138794,-1.795564,3.651708,-4.627747,-87.264297,-46.247524,0.122127,12.401898,-7.160239,6.723997,0.309371,-0.008111,-0.014246,0.119263,0,0,0,0,0,29012
29081,0,1,-0.112867,22.639999,913.109985,913.138794,-1.795564,3.651708,-4.627747,-87.263542,-46.247688,0.122322,12.397305,-7.157588,6.724701,0.309482,-0.003452,-0.027408,0.179875,0,0,0,0,0,29081
29152,0,1,-0.108513,22.65,913.059998,913.138794,0.238555,3.651708,-4.627747,-87.26284,-46.247829,0.122493,12.399423,-7.15881,6.725533,0.309495,-0.010484,-0.025248,-0.013936,0,0,0,0,0,29152
29206,0,1,0.106199,22.66,913.059998,913.138794,0.238555,3.651708,-4.627747,-87.262291,-46.24794,0.12262,12.403273,-7.161033,6.724196,0.309413,-0.006027,-0.018946,0.110313,0,0,0,0,0,29206
29263,0,1,-0.109396,22.66,913.200012,913.138794,0.238555,3.651708,-4.627747,-87.26178,-46.245598,0.119582,12.398677,-7.15838,6.724946,0.309566,-0.015948,-0.021386,0.476795,0,0,0,0,0,29263
29334,0,1,0.181649,22.66,913.210022,913.138794,0.238555,3.651708,-4.627747,-87.264343,-46.242027,0.115938,12.395967,-7.156815,6.727898,0.309624,-0.019632,-0.00967,0.230519,0,0,0,0,0,29334
29402,0,1,0.4435,22.66,913.01001,913.138794,1.844939,3.651708,-4.627747,-87.266907,-46.238491,0.112349,12.399787,-7.15902,6.729684,0.309679,-0.014026,-0.007769,-0.154419,0,0,0,0,0,29402
29456,0,1,0.034391,22.66,913.169983,913.138794,1.844939,3.651708,-4.627747,-87.269028,-46.2356,0.109436,12.401193,-7.159832,6.729467,0.309874,-0.015248,-0.001347,-0.200125,0,0,0,0,0,29456
29526,0,1,0.268773,22.67,913.109985,913.138794,1.844939,3.651708,-4.627747,-87.27153,-46.232246,0.10607,12.402439,-7.160552,6.729105,0.309691,-0.004946,-0.020462,-0.167096,0,0,0,0,0,29526
29595,0,1,0.145418,22.68,913.150024,913.138794,1.128542,3.651708,-4.627747,-87.273964,-46.229038,0.102875,12.401267,-7.159875,6.727756,0.309794,-0.01115,-0.028354,-0.009567,0,0,0,0,0,29595
29649,0,1,0.151234,22.66,913.150024,913.138794,1.128542,3.651708,-4.627747,-87.275925,-46.226494,0.100359,12.403812,-7.161345,6.731465,0.309986,-0.011345,-0.027361,0.111752,0,0,0,0,0,29649
29718,0,1,0.101612,22.66,913.049988,913.138794,1.128542,3.651708,-4.627747,-87.276863,-46.223621,0.097527,12.403107,-7.160937,6.731115,0.309801,-0.005957,-0.026398,-0.185377,0,0,0,0,0,29718
29789,0,1,-0.049521,22.690001,913.200012,913.138794,-1.00437,3.651708,-4.627747,-87.275208,-46.220943,0.094903,12.404492,-7.161737,6.730221,0.309666,-0.017616,-0.040655,-0.100704,0,0,0,0,0,29789
29857,0,1,0.180252,22.67,913.039978,913.138794,-1.00437,3.651708,-4.627747,-87.277527,-46.218472,0.092485,12.40172,-7.160136,6.730235,0.309674,-0.016581,-0.052714,0.167405,0,0,0,0,0,29857
29922,0,1,-0.247947,22.68,913.22998,913.138794,-1.00437,3.651708,-4.627747,-87.277718,-46.216194,0.090267,12.400209,-7.159264,6.732624,0.309588,-0.012564,-0.050859,-0.141257,0,0,0,0,0,29922
29992,0,1,0.151862,22.67,913.080017,913.138794,-1.345428,3.651708,-4.627747,-87.275978,-46.217922,0.092073,12.410896,-7.165434,6.733588,0.3096,-0.017835,-0.044616,-0.307923,0,0,0,0,0,29992
30052,0,1,0.339938,22.67,913.039978,913.138794,-1.345428,3.651708,-4.627747,-87.274612,-46.219097,0.092532,12.405617,-7.162386,6.729318,0.309474,-0.018791,-0.048954,0.23774,0,0,0,0,0,30052
30113,0,1,-0.304836,22.68,913.25,913.138794,-1.345428,3.651708,-4.627747,-87.273087,-46.216808,0.090348,12.386778,-7.15151,6.727148,0.30897,-0.020267,-0.038275,0.280685,0,0,0,0,0,30113
30185,0,1,-0.304367,22.690001,913.219971,913.138794,0.126802,3.651708,-4.627747,-87.271439,-46.218864,0.091796,12.394163,-7.155773,6.731173,0.309045,-0.015541,-0.051134,-0.521366,0,0,0,0,0,30185
30254,0,1,0.217554,22.700001,913.130005,913.138794,0.126802,3.651708,-4.627747,-87.270355,-46.223919,0.093803,12.42032,-7.170875,6.733172,0.309175,-0.019498,-0.058305,-0.393415,0,0,0,0,0,30254
30313,0,1,0.138377,22.690001,913.099976,913.138794,0.126802,3.651708,-4.627747,-87.269142,-46.227585,0.096043,12.399839,-7.15905,6.72153,0.308803,-0.011697,-0.04259,0.46305,0,0,0,0,0,30313
30378,0,1,0.204862,22.709999,913.01001,913.138794,0.535097,3.651708,-4.627747,-87.268021,-46.229336,0.094369,12.371675,-7.14279,6.721133,0.308584,-0.005235,-0.031633,0.259465,0,0,0,0,0,30378
30447,0,1,-0.281813,22.700001,913.119995,913.138794,0.535097,3.651708,-4.627747,-87.266983,-46.2309,0.095831,12.378705,-7.146849,6.722642,0.308729,-0.01211,-0.024934,-0.210672,0,0,0,0,0,30447
30507,0,1,0.261245,22.68,913.030029,913.138794,0.535097,3.651708,-4.627747,-87.266174,-46.232079,0.097563,12.402691,-7.160697,6.728306,0.308816,-0.013316,-0.040405,-0.058941,0,0,0,0,0,30507
30588,0,1,-0.021549,22.700001,913.150024,913.138794,0.242821,3.651708,-4.627747,-87.265137,-46.233547,0.099792,12.387762,-7.152078,6.729755,0.308708,-0.012611,-0.049892,0.253185,0,0,0,0,0,30588
30639,0,1,-0.249257,22.700001,913.169983,913.138794,0.242821,3.651708,-4.627747,-87.26445,-46.234497,0.101251,12.351563,-7.131178,6.717547,0.308326,-0.009893,-0.050306,-0.025219,0,0,0,0,0,30639
30699,0,1,0.438435,22.690001,913.02002,913.138794,0.242821,3.651708,-4.627747,-87.263809,-46.23753,0.104076,12.384708,-7.150315,6.725202,0.308681,-0.013132,-0.056245,-0.481524,0,0,0,0,0,30699
30770,0,1,-0.150913,22.709999,913.099976,913.138794,0.242821,3.651708,-4.627747,-87.263092,-46.241375,0.107797,12.398224,-7.158118,6.716974,0.308725,-0.015739,-0.045988,0.205204,0,0,0,0,0,30770
30831,0,1,-0.080194,22.709999,913.099976,913.138794,-0.242035,3.651708,-4.627747,-87.262428,-46.240486,0.106749,12.377592,-7.146206,6.716959,0.308871,-0.023276,-0.045705,0.727926,0,0,0,0,0,30831
30881,0,1,-0.065205,22.74,913.179993,913.138794,-0.242035,3.651708,-4.627747,-87.261909,-46.238068,0.104037,12.373812,-7.144023,6.724575,0.308741,-0.028156,-0.025682,0.008153,0,0,0,0,0,30881
30952,0,1,-0.056858,22.719999,913.070007,913.138794,-0.242035,3.651708,-4.627747,-87.26133,-46.238918,0.105565,12.388591,-7.152556,6.724674,0.308729,-0.020059,-0.026932,-0.552446,0,0,0,0,0,30952
31020,0,1,-0.123906,22.73,913.119995,913.138794,-0.887801,3.651708,-4.627747,-87.260788,-46.239674,0.106941,12.392756,-7.154961,6.715773,0.308617,-0.01909,-0.020055,-0.045038,0,0,0,0,0,31020
31064,0,1,0.180306,22.74,913.090027,913.138794,-0.887801,3.651708,-4.627747,-87.260452,-46.240131,0.107782,12.374431,-7.144381,6.708445,0.308275,-0.020532,-0.015768,0.265277,0,0,0,0,0,31064
31134,0,1,-0.046623,22.719999,913.130005,913.138794,-0.887801,3.651708,-4.627747,-87.259972,-46.240761,0.108941,12.379473,-7.147292,6.720132,0.308594,-0.024713,-0.017115,0.059323,0,0,0,0,0,31134
31204,0,1,-0.078046,22.73,913.119995,913.138794,0.356966,3.651708,-4.627747,-87.259521,-46.241322,0.109988,12.386455,-7.151323,6.719566,0.308694,-0.027224,-0.019123,-0.038989,0,0,0,0,0,31204
31257,0,1,0.533753,22.719999,913.070007,913.138794,0.356966,3.651708,-4.627747,-87.259178,-46.241749,0.110786,12.372286,-7.143143,6.712008,0.308464,-0.024186,-0.03183,0.070554,0,0,0,0,0,31257
31316,0,1,-0.17448,22.74,913.25,913.138794,0.356966,3.651708,-4.627747,-87.258842,-46.242142,0.111521,12.372632,-7.143342,6.71551,0.308502,-0.018541,-0.041251,0.204102,0,0,0,0,0,31316
31387,0,1,-0.046316,22.74,913.130005,913.138794,0.356966,3.651708,-4.627747,-87.258476,-46.242573,0.11233,12.378147,-7.146526,6.722673,0.308652,-0.032895,-0.039433,0.123567,0,0,0,0,0,31387
31455,0,1,0.043997,22.74,913.140015,913.138794,0.634605,3.651708,-4.627747,-87.258125,-46.242962,0.113067,12.374197,-7.144246,6.723308,0.30854,-0.034859,-0.024637,-0.146323,0,0,0,0,0,31455
31510,0,1,-0.284667,22.75,913.219971,913.138794,0.634605,3.651708,-4.627747,-87.257858,-46.243263,0.113632,12.365996,-7.139512,6.714847,0.30831,-0.025517,-0.013471,-0.191767,0,0,0,0,0,31510
31579,0,1,0.08962,22.75,913.190002,913.138794,0.634605,3.651708,-4.627747,-87.257538,-46.243595,0.114257,12.374379,-7.144351,6.71544,0.308682,-0.018867,-0.012864,0.132195,0,0,0,0,0,31579
31650,0,1,0.202333,22.75,913.070007,913.138794,1.618793,3.651708,-4.627747,-87.257256,-46.2439,0.11483,12.37475,-7.144565,6.722954,0.308458,-0.013291,-0.015647,0.211218,0,0,0,0,0,31650
31701,0,1,-0.194862,22.75,913.150024,913.138794,1.618793,3.651708,-4.627747,-87.257027,-46.244137,0.115272,12.367272,-7.140248,6.721759,0.308233,-0.011711,-0.00667,-0.260897,0,0,0,0,0,31701
31751,0,1,0.110601,22.76,913.109985,913.138794,1.618793,3.651708,-4.627747,-87.256798,-46.24683,0.118469,12.376926,-7.145822,6.72137,0.308386,-0.015685,-0.009437,-0.428781,0,0,0,0,0,31751
31822,0,1,-0.109067,22.76,913.179993,913.138794,-1.668701,3.651708,-4.627747,-87.256561,-46.250202,0.122451,12.385342,-7.150681,6.72078,0.3086,-0.020157,-0.007875,-0.150389,0,0,0,0,0,31822
31903,0,1,-0.181021,22.77,913.130005,913.138794,-1.668701,3.651708,-4.627747,-87.256332,-46.25367,0.126521,12.379997,-7.147595,6.720619,0.308697,-0.025563,-0.024824,0.018919,0,0,0,0,0,31903
31957,0,1,-0.074478,22.76,913.119995,913.138794,-1.668701,3.651708,-4.627747,-87.256104,-46.257187,0.130604,12.374786,-7.144586,6.71673,0.30827,-0.022071,-0.030002,-0.115471,0,0,0,0,0,31957
32036,0,1,-0.301084,22.76,913.109985,913.138794,-1.438816,3.651708,-4.627747,-87.255859,-46.261272,0.135289,12.374914,-7.14466,6.712446,0.30828,-0.029196,-0.029248,0.032242,0,0,0,0,0,32036
32095,0,1,-0.056172,22.77,913.200012,913.138794,-1.438816,3.651708,-4.627747,-87.255707,-46.264137,0.13853,12.379852,-7.147511,6.714845,0.308375,-0.023814,-0.022423,0.092616,0,0,0,0,0,32095
32153,0,1,0.38719,22.75,913.090027,913.138794,-1.438816,3.651708,-4.627747,-87.255554,-46.266926,0.141651,12.383814,-7.149798,6.718564,0.308166,-0.028342,-0.026849,0.074784,0,0,0,0,0,32153
32220,0,1,0.893865,22.76,913.059998,913.138794,5.936288,5.936288,-4.627747,-87.255371,-46.270145,0.145207,12.375051,-7.144739,6.713348,0.307966,-0.024562,-0.016563,-0.040147,0,0,0,0,0,32220
32288,0,1,0.147548,22.76,913.070007,913.138794,5.936288,5.936288,-4.627747,-87.255188,-46.273205,0.148533,12.374523,-7.144434,6.710572,0.307669,-0.025598,-0.017167,0.021263,0,0,0,0,0,32288
32347,0,1,-0.054658,22.77,913.26001,913.138794,5.936288,5.936288,-4.627747,-87.255051,-46.275612,0.151118,12.386285,-7.151225,6.71648,0.307781,-0.026858,-0.022012,0.092985,0,0,0,0,0,32347
32414,0,1,-0.182079,22.77,913.340027,913.138794,5.936288,5.936288,-4.627747,-87.254913,-46.278324,0.153995,12.389391,-7.153018,6.719998,0.308,-0.02953,-0.028148,0.016433,0,0,0,0,0,32414
32493,0,1,0.353057,22.780001,913.039978,913.138794,-4.098749,5.936288,-4.627747,-87.254753,-46.281239,0.157044,12.392757,-7.154962,6.71816,0.308022,-0.029695,-0.019349,-0.163468,0,0,0,0,0,32493
32540,0,1,0.059465,22.77,913.140015,913.138794,-4.098749,5.936288,-4.627747,-87.254662,-46.282784,0.158644,12.389607,-7.153143,6.71514,0.30801,-0.012903,-0.007589,-0.017633,0,0,0,0,0,32540
32610,0,1,0.420448,22.780001,913.070007,913.138794,-4.098749,5.936288,-4.627747,-87.254524,-46.284943,0.16086,12.398046,-7.158015,6.720063,0.30813,-0.012516,-0.020915,0.105195,0,0,0,0,0,32610
32675,0,1,0.412338,22.780001,913.150024,913.138794,0.984767,5.936288,-4.627747,-87.254387,-46.286922,0.162869,12.395502,-7.156547,6.721059,0.30814,-0.005056,-0.007808,-0.021284,0,0,0,0,0,32675
32743,0,1,0.802143,22.77,913.02002,913.138794,0.984767,5.936288,-4.627747,-87.25425,-46.288731,0.164688,12.391036,-7.153968,6.7163,0.308144,-0.005212,-0.020987,-0.075251,0,0,0,0,0,32743
32803,0,1,0.37604,22.790001,913.130005,913.138794,0.984767,5.936288,-4.627747,-87.254135,-46.290119,0.166072,12.398313,-7.158169,6.716179,0.30829,-0.000597,-0.012605,0.065835,0,0,0,0,0,32803
32857,0,1,0.789715,22.790001,913.030029,913.138794,1.494658,5.936288,-4.627747,-87.254059,-46.291397,0.167345,12.411596,-7.165839,6.721841,0.30834,0.004658,-0.024072,0.154333,0,0,0,0,0,32857
32935,0,1,0.920936,22.799999,913.039978,913.138794,1.494658,5.936288,-4.627747,-87.253952,-46.293034,0.168958,12.409474,-7.164613,6.719645,0.308098,0.006966,-0.019169,0.119578,0,0,0,0,0,32935
32984,0,1,0.938119,22.790001,913.01001,913.138794,1.494658,5.936288,-4.627747,-87.253891,-46.293896,0.1698,12.408655,-7.16414,6.717412,0.308032,0.016504,-0.026008,0.084236,0,0,0,0,0,32984
33049,0,1,0.970213,22.790001,913.099976,913.138794,2.77843,5.936288,-4.627747,-87.253799,-46.29509,0.170964,12.42555,-7.173895,6.72681,0.308097,0.020999,-0.01516,0.007311,0,0,0,0,0,33049
33117,0,1,0.699919,22.790001,913.109985,913.138794,2.77843,5.936288,-4.627747,-87.253708,-46.296181,0.172021,12.429651,-7.176262,6.727342,0.308006,0.027218,0.000822,-0.004963,0,0,0,0,0,33117
33177,0,1,0.903381,22.799999,913.049988,913.138794,2.77843,5.936288,-4.627747,-87.253632,-46.297016,0.172829,12.414299,-7.167399,6.723422,0.307514,0.03528,0.022048,-0.05996,0,0,0,0,0,33177
33239,0,1,0.58321,22.809999,913.140015,913.138794,-2.626453,5.936288,-4.627747,-87.25354,-46.298569,0.174358,12.422997,-7.172421,6.725089,0.307748,0.041454,0.048565,-0.4619,0,0,0,0,0,33239
33319,0,1,0.51042,22.790001,913.039978,913.138794,-2.626453,5.936288,-4.627747,-87.253433,-46.304169,0.179971,12.43014,-7.176544,6.717022,0.307275,0.041874,0.0458,-0.22343,0,0,0,0,0,33319
33369,0,1,0.336732,22.809999,913.070007,913.138794,-2.626453,5.936288,-4.627747,-87.253357,-46.30827,0.184063,12.421753,-7.171702,6.711017,0.306953,0.042633,0.034805,0.351139,0,0,0,0,0,33369
33440,0,1,0.412731,22.799999,913,913.138794,-0.848154,5.936288,-4.627747,-87.253265,-46.309296,0.184305,12.40929,-7.164507,6.712897,0.306769,0.050419,0.052862,0.210365,0,0,0,0,0,33440
33501,0,1,0.181816,22.82,913.219971,913.138794,-0.848154,5.936288,-4.627747,-87.253174,-46.313168,0.18738,12.411688,-7.165891,6.71508,0.306938,0.061785,0.032215,-0.485246,0,0,0,0,0,33501
33551,0,1,0.448182,22.83,913,913.138794,-0.848154,5.936288,-4.627747,-87.253098,-46.316975,0.191119,12.418973,-7.170097,6.710643,0.307034,0.064231,0.02281,-0.356076,0,0,0,0,0,33551
33611,0,1,0.811688,22.82,913.059998,913.138794,-0.848154,5.936288,-4.627747,-87.253029,-46.320709,0.194801,12.414664,-7.16761,6.711153,0.306822,0.071249,0.036298,-0.07212,0,0,0,0,0,33611
